host_t_us,sensor_t_us,qw,qx,qy,qz,ax,ay,az,gx,gy,gz
1781547126230900,806325568,0.14610211551189423,-0.0049157701432704926,-0.00025938075850717723,0.989257276058197,-0.10704303532838821,-0.0217540692538023,10.298425674438477,0.3944803774356842,0.06323134899139404,0.5127469897270203
1781547126231185,806342235,0.14610688388347626,-0.004922882188111544,-0.00026704222545959055,0.9892565608024597,-0.11048334836959839,-0.03291898965835571,10.322836875915527,0.3577646017074585,0.1812930852174759,0.5526259541511536
1781547126258757,806358902,0.14610010385513306,-0.004921459127217531,-0.000273602781817317,0.9892575144767761,-0.1034986674785614,-0.021356996148824692,10.314876556396484,0.3735803961753845,0.12426640838384628,0.6224589943885803
1781547126260349,806375569,0.14609213173389435,-0.004915241617709398,-0.0002635751443449408,0.9892587065696716,-0.10094514489173889,-0.03456036373972893,10.302717208862305,0.49098899960517883,0.10830968618392944,0.6366227865219116
1781547126288521,806392236,0.1460917741060257,-0.004914776887744665,-0.0002608320501167327,0.9892587661743164,-0.09535956382751465,-0.015742463991045952,10.30599308013916,0.43592172861099243,0.14013347029685974,0.58565354347229
1781547126290460,806408903,0.1460968405008316,-0.004903887398540974,-0.00026414604508318007,0.9892581701278687,-0.10933896154165268,-0.03844422847032547,10.300910949707031,0.40541699528694153,0.06323135644197464,0.5405752062797546
1781547126318978,806425570,0.14609293639659882,-0.004898009356111288,-0.00025895226281136274,0.9892587065696716,-0.09807390719652176,-0.02327038161456585,10.301007270812988,0.45796146988868713,0.10576122999191284,0.613801896572113
1781547126348805,806442237,0.14609120786190033,-0.004879739135503769,-0.0002576894185040146,0.9892590641975403,-0.08852938562631607,-0.020244929939508438,10.314118385314941,0.4438360929489136,0.017602326348423958,0.5840784311294556
1781547126350556,806458904,0.14608480036258698,-0.004874092992395163,-0.0002524401352275163,0.9892599582672119,-0.09929339587688446,-0.029142513871192932,10.311564445495605,0.45817917585372925,0.10743886232376099,0.6142373085021973
1781547126378478,806475571,0.14609158039093018,-0.004868428222835064,-0.00024728826247155666,0.9892591238021851,-0.09430816024541855,-0.01153684500604868,10.324825286865234,0.45787182450294495,0.10731080174446106,0.5335060954093933
1781547126380856,806492238,0.1460895985364914,-0.00486065074801445,-0.0002358326019020751,0.9892594218254089,-0.1037319004535675,-0.012860129587352276,10.315913200378418,0.5024763345718384,0.09916596114635468,0.6024811267852783
1781547126408584,806508905,0.14607709646224976,-0.004853821825236082,-0.0002383710816502571,0.9892613291740417,-0.09528406709432602,-0.015298926271498203,10.318580627441406,0.4060828983783722,0.0915333703160286,0.6659108996391296
1781547126410882,806525572,0.14607954025268555,-0.00484912795946002,-0.00024476065300405025,0.9892609715461731,-0.09505528956651688,-0.019837137311697006,10.314955711364746,0.3782803416252136,0.10226510465145111,0.5636906623840332
1781547126438499,806542239,0.14607776701450348,-0.0048559135757386684,-0.0002486647281330079,0.9892612099647522,-0.09611056745052338,-0.01761639676988125,10.320440292358398,0.38353097438812256,0.1828298568725586,0.5856919884681702
1781547126440332,806558906,0.14607717096805573,-0.00486287847161293,-0.00024159341410268098,0.9892612099647522,-0.10936399549245834,-0.020945847034454346,10.32895565032959,0.4578334093093872,0.19503429532051086,0.5908529162406921
1781547126468997,806575573,0.14608018100261688,-0.004872940480709076,-0.00023817022156435996,0.989260733127594,-0.09908206015825272,-0.020552294328808784,10.309415817260742,0.43019726872444153,0.2125149667263031,0.5565959811210632
1781547126498447,806592240,0.14607423543930054,-0.0048729535192251205,-0.00023544550640508533,0.9892616271972656,-0.09538459777832031,-0.006784065160900354,10.31999397277832,0.43521735072135925,0.14337347447872162,0.6241238117218018
1781547126500098,806608907,0.1460762917995453,-0.004877730738371611,-0.00023381139908451587,0.9892613291740417,-0.10033407062292099,-0.019501058384776115,10.312812805175781,0.42320504784584045,0.17474904656410217,0.5710927248001099
1781547126528474,806625574,0.14606960117816925,-0.0048667071387171745,-0.00023358465114142746,0.9892624020576477,-0.1034596785902977,-0.00831468217074871,10.29951286315918,0.42922401428222656,0.06576700508594513,0.636738121509552
1781547126530684,806642241,0.14606265723705292,-0.004867907613515854,-0.00023136541130952537,0.9892634153366089,-0.1016000509262085,-0.02408575639128685,10.326684951782227,0.43054306507110596,0.15096764266490936,0.6264930367469788
1781547126559225,806658908,0.1460602730512619,-0.004875581711530685,-0.00022946493118070066,0.989263653755188,-0.1047399565577507,-0.02543756179511547,10.319832801818848,0.4219883978366852,0.19465011358261108,0.5996637344360352
1781547126561302,806675575,0.1460622251033783,-0.004873579367995262,-0.00023269723169505596,0.9892633557319641,-0.09489108622074127,-0.02444695308804512,10.318126678466797,0.3969135880470276,0.12375415861606598,0.567314863204956
1781547126589309,806692242,0.14606381952762604,-0.004877965431660414,-0.0002293851284775883,0.989263117313385,-0.09564889222383499,-0.011844256892800331,10.304523468017578,0.43501245975494385,0.1737501472234726,0.5684033632278442
1781547126592614,806708909,0.14605823159217834,-0.004877069499343634,-0.00023042359680403024,0.9892639517784119,-0.10119593888521194,-0.023552902042865753,10.303418159484863,0.4104498624801636,0.13343575596809387,0.628221869468689
1781547126619448,806725576,0.1460481584072113,-0.004872825928032398,-0.000227608485147357,0.9892654418945312,-0.10212574899196625,-0.013221238739788532,10.299598693847656,0.4399237036705017,0.11447595804929733,0.6501527428627014
1781547126649121,806742243,0.14604391157627106,-0.004868596326559782,-0.0002312038850504905,0.989266037940979,-0.11059421300888062,-0.05273832753300667,10.302237510681152,0.39655497670173645,0.10822005569934845,0.6073475480079651
1781547126651285,806758910,0.14604736864566803,-0.0048619406297802925,-0.00022367204655893147,0.9892656803131104,-0.10225807130336761,-0.023066537454724312,10.336569786071777,0.47480177879333496,0.10287981480360031,0.5660470128059387
1781547126679062,806775577,0.14605030417442322,-0.004858352709561586,-0.00022342154989019036,0.9892652630805969,-0.10431796312332153,-0.03007948026061058,10.31778335571289,0.4221421480178833,0.11645454168319702,0.5745633244514465
1781547126680976,806792244,0.14604800939559937,-0.004864219110459089,-0.0002295035228598863,0.9892655611038208,-0.10882724821567535,-0.034907206892967224,10.318495750427246,0.3694823980331421,0.17433923482894897,0.5983446836471558
1781547126709110,806808911,0.14604993164539337,-0.004862848203629255,-0.0002345564280403778,0.9892652630805969,-0.09829206019639969,-0.024278871715068817,10.320526123046875,0.38401761651039124,0.1262257993221283,0.55829918384552
1781547126710968,806825578,0.1460457146167755,-0.004861024674028158,-0.00023435366165358573,0.9892658591270447,-0.10178207606077194,-0.03125593811273575,10.311050415039062,0.4200035035610199,0.1283772587776184,0.6041587591171265
1781547126739048,806842245,0.1460450142621994,-0.004865554627031088,-0.00023036441416479647,0.9892659783363342,-0.09363941103219986,-0.027164870873093605,10.306346893310547,0.4393281936645508,0.175389364361763,0.5915828943252563
1781547126741366,806858912,0.14604048430919647,-0.004857060965150595,-0.0002194674452766776,0.9892666935920715,-0.11333358287811279,-0.03252560645341873,10.317694664001465,0.4994156062602997,0.09373606741428375,0.6126493811607361
1781547126769323,806875579,0.14602893590927124,-0.004855251871049404,-0.00021741951059084386,0.9892683625221252,-0.11906224489212036,-0.018281446769833565,10.28105640411377,0.43216946721076965,0.13028539717197418,0.6636955142021179
1781547126799075,806892246,0.14602810144424438,-0.004856717307120562,-0.00021797585941385478,0.9892686009407043,-0.10363133251667023,-0.029081717133522034,10.338364601135254,0.41164082288742065,0.14996874332427979,0.5883300304412842
1781547126801399,806908913,0.14602631330490112,-0.004865516908466816,-0.0002274851722177118,0.9892687201499939,-0.09526658803224564,-0.016239557415246964,10.315902709960938,0.3433510363101959,0.19090424478054047,0.58580082654953
1781547126829124,806925580,0.14602118730545044,-0.004861929453909397,-0.00023739565222058445,0.989269495010376,-0.0958244726061821,-0.02640671469271183,10.300274848937988,0.352885365486145,0.10618384182453156,0.6247768998146057
1781547126830926,806942247,0.14602889120578766,-0.004857287276536226,-0.00024049775674939156,0.9892683625221252,-0.10012665390968323,-0.019404500722885132,10.312211990356445,0.40056341886520386,0.10594053566455841,0.5348251461982727
1781547126859216,806958914,0.1460336297750473,-0.004857844673097134,-0.00023153590154834092,0.9892677068710327,-0.11609122157096863,-0.024844039231538773,10.328272819519043,0.4772990047931671,0.1533496379852295,0.5571850538253784
1781547126860923,806975581,0.1460462212562561,-0.004863484296947718,-0.00022842400358058512,0.9892657995223999,-0.10151749849319458,-0.024958224967122078,10.317161560058594,0.4327969551086426,0.18216389417648315,0.4865708351135254
1781547126889238,806992248,0.14604300260543823,-0.004859119653701782,-0.000239167085965164,0.9892662763595581,-0.10070599615573883,-0.025627100840210915,10.313613891601562,0.3481597900390625,0.10007521510124207,0.5991258025169373
1781547126891725,807008915,0.14604227244853973,-0.004855831153690815,-0.00022780582366976887,0.9892663955688477,-0.10964335501194,-0.02324546128511429,10.331541061401367,0.49744343757629395,0.12963227927684784,0.5848467350006104
1781547126919403,807025582,0.1460360735654831,-0.004853530786931515,-0.00021734910842496902,0.9892673492431641,-0.09312443435192108,-0.023552902042865753,10.323934555053711,0.48997732996940613,0.13536949455738068,0.6334596872329712
1781547126949103,807042249,0.1460271179676056,-0.004851993173360825,-0.00021492298401426524,0.9892686605453491,-0.1068427711725235,-0.03266865387558937,10.307151794433594,0.434756338596344,0.13253933191299438,0.6342152953147888
1781547126951122,807058916,0.1460314244031906,-0.004861842840909958,-0.00022204976994544268,0.9892680048942566,-0.0986928790807724,-0.01917220838367939,10.303793907165527,0.3586482107639313,0.20042575895786285,0.5512428879737854
1781547126979072,807075583,0.14603610336780548,-0.004858957603573799,-0.00022860879835207015,0.9892673492431641,-0.1153004989027977,-0.027858654037117958,10.288033485412598,0.37527087330818176,0.11441834270954132,0.5544957518577576
1781547126982694,807092250,0.14603570103645325,-0.004864625167101622,-0.00022404080664273351,0.9892673492431641,-0.10793351382017136,-0.029754044488072395,10.341826438903809,0.44228649139404297,0.18370068073272705,0.5869341492652893
1781547127009545,807108917,0.14603473246097565,-0.004869790747761726,-0.00021862162975594401,0.9892675280570984,-0.11470364779233932,-0.022619666531682014,10.313420295715332,0.44856157898902893,0.18116502463817596,0.5821702480316162
1781547127011018,807125584,0.1460329294204712,-0.004873516038060188,-0.0002206375647801906,0.9892677664756775,-0.10225091874599457,-0.017695073038339615,10.330836296081543,0.39930832386016846,0.16382522881031036,0.6032622456550598
1781547127039211,807142251,0.1460384875535965,-0.004864296410232782,-0.00022166690905578434,0.9892669916152954,-0.10531183332204819,-0.004269931465387344,10.331560134887695,0.419465571641922,0.07687011361122131,0.5406904816627502
1781547127042273,807158918,0.1460307389497757,-0.004857572261244059,-0.00021604217181447893,0.9892681837081909,-0.08821073174476624,-0.024121517315506935,10.316381454467773,0.46164971590042114,0.10040818899869919,0.6408745646476746
1781547127069944,807175585,0.1460304707288742,-0.004853139631450176,-0.00021581527835223824,0.9892681837081909,-0.10420352965593338,-0.011429558508098125,10.312604904174805,0.42280808091163635,0.11062765121459961,0.5864475965499878
1781547127099723,807192252,0.14602448046207428,-0.004853745456784964,-0.0002171872474718839,0.9892690777778625,-0.10500817745923996,-0.030826907604932785,10.328365325927734,0.40677452087402344,0.1432582288980484,0.6210247278213501
1781547127101394,807208919,0.14603140950202942,-0.004863175563514233,-0.0002136332041118294,0.9892680048942566,-0.09567070007324219,-0.033684294670820236,10.333511352539062,0.43184930086135864,0.2083272784948349,0.5283579230308533
1781547127129234,807225586,0.14603488147258759,-0.00486519793048501,-0.00020619654969777912,0.9892675280570984,-0.09745486825704575,-0.01585320197045803,10.302274703979492,0.46561965346336365,0.1618146151304245,0.5422399640083313
1781547127131432,807242253,0.14603100717067719,-0.004867286421358585,-0.0001942293456522748,0.9892680644989014,-0.10023393481969833,-0.023906946182250977,10.315716743469238,0.49608588218688965,0.16679628193378448,0.6059004068374634
1781547127159075,807258920,0.14604094624519348,-0.004864261485636234,-0.0002036812948063016,0.989266574382782,-0.10195409506559372,-0.02476523630321026,10.331748962402344,0.3559076488018036,0.11052519828081131,0.5193679332733154
1781547127161348,807275587,0.14604395627975464,-0.0048604398034513,-0.00020520735415630043,0.9892661571502686,-0.09013472497463226,-0.026399562135338783,10.321359634399414,0.410616397857666,0.11311209946870804,0.548579216003418
1781547127189074,807292254,0.14603948593139648,-0.004845824092626572,-0.0001966262498172,0.9892668724060059,-0.09928266704082489,-0.010860941372811794,10.299674034118652,0.48981085419654846,0.04974626377224922,0.6072834730148315
1781547127191276,807308921,0.14605501294136047,-0.0048446813598275185,-0.00020459060033317655,0.9892646074295044,-0.09979764372110367,-0.03125247731804848,10.32031536102295,0.3644111156463623,0.12491954863071442,0.47522446513175964
1781547127219240,807325588,0.146061971783638,-0.0048369779251515865,-0.00020089144527446479,0.9892635941505432,-0.10353513062000275,-0.02559499256312847,10.3193359375,0.45002153515815735,0.09191756695508957,0.5359649062156677
1781547127249131,807342255,0.14612820744514465,-0.0049070436507463455,-0.00029185699531808496,0.9892534613609314,-0.09371060878038406,-0.023227309808135033,10.315702438354492,0.41503456234931946,0.19295968115329742,0.560732364654541
1781547127251555,807358922,0.1461208164691925,-0.004900855012238026,-0.00029452366288751364,0.9892545938491821,-0.0995115414261818,-0.018982509151101112,10.323930740356445,0.40536579489707947,0.09538809210062027,0.6380314826965332
1781547127279066,807375589,0.14611929655075073,-0.004906893242150545,-0.0002828580909408629,0.9892547726631165,-0.10334881395101547,-0.02720063179731369,10.302388191223145,0.4910273849964142,0.19310052692890167,0.5759463906288147
1781547127280925,807392256,0.14611202478408813,-0.004909475799649954,-0.0002811831946019083,0.9892558455467224,-0.10557679086923599,-0.0202914010733366,10.307380676269531,0.4262528717517853,0.1594582349061966,0.6233938932418823
1781547127309100,807408923,0.14611251652240753,-0.0049219378270208836,-0.0002788047422654927,0.9892557263374329,-0.10226557403802872,-0.03794017806649208,10.316750526428223,0.4213097393512726,0.2274215817451477,0.5723094344139099
1781547127310864,807425590,0.14611662924289703,-0.004915951751172543,-0.0002798956702463329,0.9892551898956299,-0.09745164960622787,-0.027011092752218246,10.329288482666016,0.4163151979446411,0.09843599796295166,0.5504617094993591
1781547127339056,807442257,0.14611145853996277,-0.0049183564260602,-0.0002634692646097392,0.989255964756012,-0.1047399565577507,-0.02042371965944767,10.304540634155273,0.5266931653022766,0.1730586290359497,0.619539201259613
1781547127341652,807458924,0.14610783755779266,-0.004922113381326199,-0.00026421071379445493,0.9892565011978149,-0.10362417995929718,-0.031209560111165047,10.310867309570312,0.408720999956131,0.16505463421344757,0.5965005159378052
1781547127369290,807475591,0.1461060345172882,-0.0049209753051400185,-0.00026665584300644696,0.9892566800117493,-0.10709310322999954,-0.022737525403499603,10.30841064453125,0.4021129608154297,0.13004206120967865,0.588906466960907
1781547127399106,807492258,0.14609475433826447,-0.004928765818476677,-0.0002710642584133893,0.9892582893371582,-0.10237966477870941,-0.03891986235976219,10.321721076965332,0.3793945014476776,0.18869516253471375,0.6619536876678467
1781547127401133,807508925,0.14609625935554504,-0.004932615906000137,-0.00028028470114804804,0.9892580509185791,-0.10169989615678787,-0.02898145094513893,10.319997787475586,0.35106685757637024,0.15717874467372894,0.5725783109664917
1781547127429644,807525592,0.14608891308307648,-0.004944437183439732,-0.0002766064426396042,0.9892590641975403,-0.11206403374671936,-0.015145237557590008,10.31200122833252,0.4306070804595947,0.22429679334163666,0.6293232440948486
1781547127431044,807542259,0.146079882979393,-0.004938196390867233,-0.0002776942274067551,0.9892604947090149,-0.09765906631946564,-0.013632502406835556,10.327167510986328,0.41604629158973694,0.09655346721410751,0.6420271992683411
1781547127460324,807558926,0.14608041942119598,-0.004941175691783428,-0.00027804207638837397,0.9892604351043701,-0.10422175377607346,-0.031907059252262115,10.293970108032227,0.41229403018951416,0.16016261279582977,0.5741150975227356
1781547127461005,807575593,0.1460808366537094,-0.004942177329212427,-0.00027951932861469686,0.9892603754997253,-0.0959707647562027,-0.024318087846040726,10.307384490966797,0.4066336452960968,0.14557617902755737,0.5804798603057861
1781547127490120,807592260,0.14608624577522278,-0.004930698312819004,-0.0002712977584451437,0.989259660243988,-0.09039898961782455,-0.021907787770032883,10.330737113952637,0.4851236939430237,0.0704285129904747,0.5517935752868652
1781547127491272,807608927,0.14608605206012726,-0.004936415236443281,-0.00027547409990802407,0.989259660243988,-0.09946862608194351,-0.02613849937915802,10.311758041381836,0.38353094458580017,0.17495393753051758,0.5809023976325989
1781547127519364,807625594,0.1460789442062378,-0.004943300038576126,-0.00026271442766301334,0.9892606139183044,-0.10314854979515076,-0.02202228456735611,10.307591438293457,0.49723851680755615,0.19984948635101318,0.6240854263305664
1781547127549938,807642261,0.1460762917995453,-0.004947022069245577,-0.000263597525190562,0.9892609715461731,-0.11110595613718033,-0.02094956673681736,10.286102294921875,0.40778619050979614,0.16467046737670898,0.5991002321243286
1781547127551012,807658928,0.1460702270269394,-0.004943774081766605,-0.0002587541239336133,0.9892618656158447,-0.10207568109035492,-0.031216712668538094,10.318649291992188,0.45358172059059143,0.1229601725935936,0.6253149509429932
1781547127579027,807675595,0.14606165885925293,-0.004935967270284891,-0.00026747662923298776,0.9892631769180298,-0.10357768833637238,-0.02988278865814209,10.325154304504395,0.3659093976020813,0.07835564762353897,0.6362130045890808
1781547127581314,807692262,0.14605499804019928,-0.004947759211063385,-0.0002737121540121734,0.9892641305923462,-0.07956703752279282,-0.022190365940332413,10.321331024169922,0.36323294043540955,0.214141383767128,0.622561514377594
1781547127609503,807708929,0.14605051279067993,-0.004948894493281841,-0.00025618469226174057,0.9892647862434387,-0.11647707223892212,-0.030969955027103424,10.311139106750488,0.535542368888855,0.16556689143180847,0.6128671169281006
1781547127611422,807725596,0.1460474133491516,-0.0049430737271904945,-0.00024264150124508888,0.9892652034759521,-0.116305410861969,-0.033054884523153305,10.293025970458984,0.5155004262924194,0.11421342194080353,0.5963212847709656
1781547127639012,807742263,0.14604730904102325,-0.004944555927067995,-0.0002543009468354285,0.9892652630805969,-0.10568765550851822,-0.011011142283678055,10.304766654968262,0.3367365598678589,0.13860952854156494,0.5882404446601868
1781547127641403,807758930,0.14604593813419342,-0.004928905051201582,-0.00025973186711780727,0.9892655611038208,-0.09301715344190598,-0.011461744084954262,10.306772232055664,0.3962220549583435,0.028257209807634354,0.6022505760192871
1781547127669241,807775597,0.14604543149471283,-0.004935605451464653,-0.0002666309883352369,0.9892656207084656,-0.11817576736211777,-0.032021358609199524,10.306375503540039,0.36393722891807556,0.17889828979969025,0.5895594358444214
1781547127699024,807792264,0.14605259895324707,-0.004941227845847607,-0.00025230026221834123,0.9892644882202148,-0.11042255163192749,-0.03618764132261276,10.30488109588623,0.509596586227417,0.19285720586776733,0.5375016331672668
1781547127701369,807808931,0.14605218172073364,-0.00495001720264554,-0.0002482380950823426,0.9892645478248596,-0.09674713760614395,-0.03237540274858475,10.305249214172363,0.43645957112312317,0.20412681996822357,0.5853334069252014
1781547127729108,807825598,0.14604386687278748,-0.00495920330286026,-0.00024493286036886275,0.9892657399177551,-0.10556922852993011,-0.027382830157876015,10.302334785461426,0.4306327700614929,0.20597092807292938,0.636033833026886
1781547127731778,807842265,0.14605312049388885,-0.004969821777194738,-0.00023996521485969424,0.9892643690109253,-0.10660316050052643,-0.027461696416139603,10.338006973266602,0.4410187005996704,0.21753504872322083,0.5208278894424438
1781547127759273,807858932,0.14604847133159637,-0.004950894508510828,-0.00023379820049740374,0.989264965057373,-0.09975115209817886,-0.027279309928417206,10.302699089050293,0.47849002480506897,0.017640747129917145,0.6156460046768188
1781547127761396,807875599,0.14604778587818146,-0.004958003759384155,-0.00022284298029262573,0.9892651438713074,-0.10097063332796097,-0.022637391462922096,10.32032299041748,0.48502129316329956,0.19958053529262543,0.5883685350418091
1781547127789202,807892266,0.1460435837507248,-0.00495936768129468,-0.00022371794329956174,0.9892657399177551,-0.10280165821313858,-0.04164135828614235,10.323741912841797,0.4101809859275818,0.14858567714691162,0.6148776412010193
1781547127792209,807908933,0.14604288339614868,-0.004965222906321287,-0.00022608436120208353,0.9892658591270447,-0.09450161457061768,-0.03015831485390663,10.323938369750977,0.39555612206459045,0.17766888439655304,0.5881892442703247
1781547127820361,807925600,0.1460503339767456,-0.004973046015948057,-0.00022371215163730085,0.989264726638794,-0.10952850431203842,-0.02416800893843174,10.31855583190918,0.4260992407798767,0.19585388898849487,0.5358753204345703
1781547127849708,807942267,0.14605273306369781,-0.0049824477173388,-0.0002279878972331062,0.989264190196991,-0.09923230111598969,-0.027068153023719788,10.320866584777832,0.3792920708656311,0.19995196163654327,0.5566600561141968
1781547127851545,807958934,0.14605017006397247,-0.004983033053576946,-0.00024434435181319714,0.9892645478248596,-0.11349093914031982,-0.04432351142168045,10.295174598693848,0.3058348298072815,0.1277625411748886,0.5933117270469666
1781547127888244,807975601,0.14604990184307098,-0.0049903071485459805,-0.0002497719833627343,0.9892646074295044,-0.0937928780913353,-0.017380213364958763,10.320545196533203,0.3734394907951355,0.1842641532421112,0.5793783664703369
1781547127888753,807992268,0.14604102075099945,-0.004977235104888678,-0.00025878913584165275,0.9892659783363342,-0.1027444377541542,-0.01810276135802269,10.30258846282959,0.3691878318786621,0.042190514504909515,0.6397348642349243
1781547127909731,808008935,0.14603549242019653,-0.004975239280611277,-0.00026457422063685954,0.9892668128013611,-0.10840199887752533,-0.017619973048567772,10.31723690032959,0.38015007972717285,0.12083432078361511,0.6170291304588318
1781547127911551,808025602,0.14602676033973694,-0.004972935654222965,-0.0002676756994333118,0.9892681241035461,-0.10095275193452835,-0.00795348547399044,10.318774223327637,0.3986680209636688,0.12137217074632645,0.6283626556396484
1781547127939679,808042269,0.14601971209049225,-0.004973842296749353,-0.00024371620384044945,0.9892691969871521,-0.10157275944948196,-0.018490053713321686,10.310336112976074,0.5794937610626221,0.17043331265449524,0.6239829659461975
1781547127941615,808058936,0.14602240920066833,-0.004979442805051804,-0.00023876954219304025,0.9892687201499939,-0.09510207921266556,-0.020591801032423973,10.314879417419434,0.44573137164115906,0.18327808380126953,0.5706445574760437
1781547127969283,808075603,0.14601877331733704,-0.004991893656551838,-0.00023176701506599784,0.9892691969871521,-0.10719681531190872,-0.029825568199157715,10.326202392578125,0.4526852071285248,0.23195499181747437,0.6100881099700928
1781547127999493,808092270,0.14602258801460266,-0.004997807554900646,-0.00023264852643478662,0.9892686009407043,-0.11284007132053375,-0.018925288692116737,10.320680618286133,0.4059164524078369,0.1795770227909088,0.5485279560089111
1781547128001758,808108937,0.14602380990982056,-0.0050083850510418415,-0.0002278278989251703,0.9892683625221252,-0.10202919691801071,-0.015238218940794468,10.297388076782227,0.43990451097488403,0.21704840660095215,0.5752676129341125
1781547128029521,808125604,0.14602908492088318,-0.005011033266782761,-0.00022974870807956904,0.9892675876617432,-0.10756129026412964,-0.04272124916315079,10.320158958435059,0.40221545100212097,0.15633352100849152,0.5331987738609314
1781547128031649,808142271,0.14601920545101166,-0.0050082760863006115,-0.0002196929563069716,0.9892690181732178,-0.10118163377046585,-0.026610558852553368,10.310223579406738,0.48846617341041565,0.1315276026725769,0.654923141002655
1781547128059199,808158938,0.14601433277130127,-0.005006466060876846,-0.00023115477233659476,0.9892697334289551,-0.10223274677991867,-0.0257628932595253,10.321836471557617,0.341436505317688,0.11635210365056992,0.6130719780921936
1781547128061516,808175605,0.14601930975914001,-0.005007336847484112,-0.00023426083498634398,0.9892690181732178,-0.10013380646705627,-0.03336601331830025,10.322056770324707,0.39586350321769714,0.14307895302772522,0.5473241806030273
1781547128089369,808192272,0.14601051807403564,-0.005005349405109882,-0.0002226492069894448,0.9892703294754028,-0.10849855095148087,-0.019508210942149162,10.310323715209961,0.498403936624527,0.13827656209468842,0.6403623223304749
1781547128091369,808208939,0.14600783586502075,-0.0050073000602424145,-0.0002351918665226549,0.9892706871032715,-0.10059485584497452,-0.0362161286175251,10.321052551269531,0.330333411693573,0.1409018635749817,0.593478262424469
1781547128119499,808225606,0.14600566029548645,-0.005014162044972181,-0.00024278326600324363,0.9892711043357849,-0.10137444734573364,-0.02362784743309021,10.307398796081543,0.3590836226940155,0.17924407124519348,0.5958858132362366
1781547128150392,808242273,0.14600062370300293,-0.005016911309212446,-0.00023092438641469926,0.989271879196167,-0.11159197241067886,-0.026081278920173645,10.324792861938477,0.4955737292766571,0.17084309458732605,0.608000636100769
1781547128151070,808258940,0.1460006684064865,-0.005014100577682257,-0.0002422743127681315,0.9892717599868774,-0.09144004434347153,-0.010517626069486141,10.303665161132812,0.3433830440044403,0.10970558971166611,0.5788021087646484
1781547128180312,808275607,0.14600276947021484,-0.005019350443035364,-0.0002385664265602827,0.9892714619636536,-0.10059155523777008,-0.028477339074015617,10.309694290161133,0.4377146065235138,0.17969228327274323,0.5665977001190186
1781547128181010,808292274,0.14600621163845062,-0.0050239828415215015,-0.0002446943544782698,0.9892709255218506,-0.10098493844270706,-0.02399277500808239,10.306046485900879,0.37137773633003235,0.165579691529274,0.5643694400787354
1781547128209140,808308941,0.14600281417369843,-0.005021687131375074,-0.00024050753563642502,0.9892714023590088,-0.1005343422293663,-0.01775229349732399,10.305048942565918,0.4483950436115265,0.12881265580654144,0.603941023349762
1781547128211000,808325608,0.14600113034248352,-0.00501967640593648,-0.00023845270334277302,0.9892716407775879,-0.09117861837148666,-0.028198285028338432,10.292986869812012,0.43369337916374207,0.12860776484012604,0.5870366096496582
1781547128239240,808342275,0.1460075080394745,-0.005022132769227028,-0.00024000999110285193,0.989270806312561,-0.10389597713947296,-0.018063422292470932,10.329495429992676,0.40482789278030396,0.15543705224990845,0.5357088446617126
1781547128241736,808358942,0.14600321650505066,-0.005030657164752483,-0.00024347411817871034,0.989271342754364,-0.10757624357938766,-0.033305391669273376,10.314018249511719,0.3854006826877594,0.194662943482399,0.6156204342842102
1781547128269391,808375609,0.1460048407316208,-0.005034505855292082,-0.000236052306718193,0.9892711043357849,-0.10208960622549057,-0.011708359234035015,10.32703971862793,0.46437740325927734,0.17389102280139923,0.5739229321479797
1781547128299122,808392276,0.14600227773189545,-0.00504168588668108,-0.00023999651602935046,0.9892714023590088,-0.09945432841777802,-0.03506828844547272,10.30848217010498,0.3836974501609802,0.1850709617137909,0.5903663635253906
1781547128301132,808408943,0.1459953635931015,-0.005041707772761583,-0.0002390762383583933,0.98927241563797,-0.1013500839471817,-0.022962957620620728,10.338789939880371,0.42381972074508667,0.1413116604089737,0.6148520112037659
1781547128329175,808425610,0.14600323140621185,-0.005051357205957174,-0.00022474455181509256,0.9892711639404297,-0.10619547218084335,-0.021729035302996635,10.321370124816895,0.5056779384613037,0.2202756106853485,0.5321486592292786
1781547128332754,808442277,0.14599759876728058,-0.005055850837379694,-0.00020945590222254395,0.9892719984054565,-0.09978285431861877,-0.0359693206846714,10.313474655151367,0.516921877861023,0.18612107634544373,0.6308472156524658
1781547128359662,808458944,0.1459963470697403,-0.005054882727563381,-0.00020907922589685768,0.9892721772193909,-0.09494830667972565,-0.02240493893623352,10.323820114135742,0.42114320397377014,0.1339864283800125,0.5935550928115845
1781547128361599,808475611,0.1460031121969223,-0.005049774888902903,-0.00019912837888114154,0.9892712831497192,-0.105501689016819,-0.027125531807541847,10.322671890258789,0.4907456934452057,0.11555808782577515,0.536451518535614
1781547128389343,808492278,0.1459883451461792,-0.0050475322641432285,-0.00020907424914184958,0.9892734289169312,-0.10884544253349304,-0.015231067314743996,10.298121452331543,0.35173285007476807,0.11487936973571777,0.6826745271682739
1781547128391467,808508945,0.14598548412322998,-0.00504841236397624,-0.00021640736667905003,0.9892738461494446,-0.09539532661437988,-0.022319110110402107,10.307037353515625,0.3668058514595032,0.13885283470153809,0.6041074991226196
1781547128419373,808525612,0.14598283171653748,-0.005061549600213766,-0.0002159018476959318,0.9892742037773132,-0.10163938999176025,-0.031077241525053978,10.321513175964355,0.40788865089416504,0.2300596833229065,0.6009187698364258
1781547128449206,808542279,0.1459885984659195,-0.005052012857049704,-0.00020663718169089407,0.9892734289169312,-0.10740743577480316,-0.027711961418390274,10.316987037658691,0.49054083228111267,0.08474601060152054,0.5424961447715759
1781547128451196,808558946,0.14599287509918213,-0.005045303609222174,-0.00021327745344024152,0.9892728328704834,-0.09164061397314072,-0.02648189291357994,10.32234001159668,0.3793817162513733,0.08796041458845139,0.5546494126319885
1781547128479067,808575613,0.14599530398845673,-0.005046906881034374,-0.00022307049948722124,0.98927241563797,-0.0936751738190651,-0.03356270492076874,10.318408966064453,0.3495684862136841,0.14136287569999695,0.563306450843811
1781547128480918,808592280,0.14599239826202393,-0.005052044987678528,-0.0002242186019429937,0.9892728328704834,-0.09823126345872879,-0.03578352928161621,10.31685733795166,0.40452054142951965,0.17403186857700348,0.6077573299407959
1781547128509117,808608947,0.1459881067276001,-0.005056626629084349,-0.00022643207921646535,0.9892734885215759,-0.096922367811203,-0.023252500221133232,10.312418937683105,0.39798930287361145,0.1691526472568512,0.6055417656898499
1781547128511130,808625614,0.14598067104816437,-0.005061029456555843,-0.00021931524679530412,0.9892745614051819,-0.11599428206682205,-0.022830506786704063,10.331827163696289,0.46149593591690063,0.1773359328508377,0.6300019025802612
1781547128539064,808642281,0.1459832787513733,-0.005058556329458952,-0.0002292380086146295,0.9892741441726685,-0.10341648757457733,-0.012470143847167492,10.309062004089355,0.3529622256755829,0.11356031149625778,0.5567240118980408
1781547128541134,808658948,0.14598235487937927,-0.005063129588961601,-0.00022464840731117874,0.989274263381958,-0.10557679086923599,-0.006880622822791338,10.316882133483887,0.44430989027023315,0.17592723667621613,0.5899821519851685
1781547128569546,808675615,0.14598485827445984,-0.005062666721642017,-0.00023462802346330136,0.9892738461494446,-0.0916939526796341,-0.02993285469710827,10.319195747375488,0.3505290150642395,0.12714783847332,0.5602841973304749
1781547128599206,808692282,0.14597928524017334,-0.005056912545114756,-0.00024760866654105484,0.9892747402191162,-0.10945340245962143,-0.02690023183822632,10.317615509033203,0.33496925234794617,0.08801164478063583,0.6288622617721558
1781547128601423,808708949,0.14597322046756744,-0.005064285825937986,-0.0002471400366630405,0.9892755746841431,-0.08785668760538101,-0.030458558350801468,10.322046279907227,0.4133185148239136,0.19085940718650818,0.6246359944343567
1781547128629278,808725616,0.14598272740840912,-0.005051850341260433,-0.00025053942226804793,0.989274263381958,-0.10222946107387543,-0.03147419914603233,10.315502166748047,0.40737640857696533,0.05249963700771332,0.5166530013084412
1781547128631453,808742283,0.14599516987800598,-0.005049518775194883,-0.0002451535256113857,0.98927241563797,-0.09513426572084427,-0.026918111369013786,10.318477630615234,0.45715466141700745,0.1299012154340744,0.5009908676147461
1781547128659081,808758950,0.14599429070949554,-0.0050460160709917545,-0.0002507840108592063,0.9892725348472595,-0.1021433174610138,-0.020251967012882233,10.326725006103516,0.3829290568828583,0.11080694943666458,0.5840656161308289
1781547128661131,808775617,0.1459958851337433,-0.005039137322455645,-0.0002567668561823666,0.9892723560333252,-0.11114852130413055,-0.03456762060523033,10.300982475280762,0.38391515612602234,0.08744814991950989,0.5768811702728271
1781547128689758,808792284,0.1459905207157135,-0.005043699871748686,-0.0002640668535605073,0.9892731308937073,-0.11064817756414413,-0.033333975821733475,10.327410697937012,0.36330974102020264,0.163966104388237,0.6152234673500061
1781547128691451,808808951,0.14598944783210754,-0.005048244725912809,-0.0002630145172588527,0.9892732501029968,-0.10175024718046188,-0.019594039767980576,10.310201644897461,0.4204004108905792,0.17218776047229767,0.5858712792396545
1781547128719674,808825618,0.14599038660526276,-0.005047953221946955,-0.0002512250794097781,0.9892730712890625,-0.10584899038076401,-0.023342033848166466,10.318455696105957,0.49830153584480286,0.15013523399829865,0.5744223594665527
1781547128749106,808842285,0.14599651098251343,-0.005059119313955307,-0.0002460349351167679,0.9892721176147461,-0.11290767788887024,-0.01732655242085457,10.319278717041016,0.441991925239563,0.22141538560390472,0.5414844155311584
1781547128751309,808858952,0.14599210023880005,-0.0050607239827513695,-0.00024874700466170907,0.9892727732658386,-0.10268399119377136,-0.026549899950623512,10.312641143798828,0.39751550555229187,0.1484447866678238,0.6101776957511902
1781547128779073,808875619,0.14599519968032837,-0.005071818828582764,-0.00024342954566236585,0.9892722368240356,-0.09754463285207748,-0.03408125415444374,10.309944152832031,0.4428372085094452,0.22104401886463165,0.5648561120033264
1781547128782596,808892286,0.14599007368087769,-0.005068136379122734,-0.00023909512674435973,0.9892730116844177,-0.10209356248378754,-0.016178762540221214,10.298482894897461,0.4507514536380768,0.11952805519104004,0.6173363924026489
1781547128809503,808908953,0.1459907740354538,-0.005064557772129774,-0.0002283562789671123,0.9892728924751282,-0.09386155009269714,-0.024929853156208992,10.326605796813965,0.49435707926750183,0.12666119635105133,0.5858456492424011
1781547128811321,808925620,0.14599820971488953,-0.005069484934210777,-0.00022821503807790577,0.9892719388008118,-0.10079151391983032,-0.027522357180714607,10.314902305603027,0.413869172334671,0.17394223809242249,0.5359777808189392
1781547128839063,808942287,0.14599502086639404,-0.005084138363599777,-0.00022354906832333654,0.9892723560333252,-0.10576990991830826,-0.013925750739872456,10.313695907592773,0.43470513820648193,0.24458205699920654,0.6039538383483887
1781547128840957,808958954,0.1459939181804657,-0.005094470456242561,-0.00022997746418695897,0.9892723560333252,-0.10249409824609756,-0.021514462307095528,10.322232246398926,0.36361709237098694,0.20410118997097015,0.5954760313034058
1781547128869715,808975621,0.14598871767520905,-0.005094484426081181,-0.00022398038709070534,0.9892731308937073,-0.11080162972211838,-0.023678068071603775,10.314014434814453,0.45828157663345337,0.1463061273097992,0.6201794743537903
1781547128899491,808992288,0.14599359035491943,-0.005094786640256643,-0.0002190164668718353,0.98927241563797,-0.1084127277135849,-0.02440403774380684,10.32032299041748,0.4513789713382721,0.1473434418439865,0.5507434606552124
1781547128900621,809008955,0.14599284529685974,-0.005100968759506941,-0.00021816810476593673,0.9892724752426147,-0.10623516142368317,-0.02491559460759163,10.330318450927734,0.4173397719860077,0.18316282331943512,0.5856407880783081
1781547128929105,809025622,0.14598946273326874,-0.005103512667119503,-0.00022713100770488381,0.989272952079773,-0.10178212821483612,-0.025623392313718796,10.31115436553955,0.35393548011779785,0.14852163195610046,0.6134689450263977
1781547128931894,809042289,0.14598782360553741,-0.005104485433548689,-0.00022449549578595906,0.989273190498352,-0.11404561996459961,-0.025945516303181648,10.303753852844238,0.4346410930156708,0.14950773119926453,0.5940289497375488
1781547128959361,809058956,0.14598041772842407,-0.005108060780912638,-0.00023297510051634163,0.989274263381958,-0.09782715141773224,-0.020699087530374527,10.316532135009766,0.35616376996040344,0.15598773956298828,0.6374680995941162
1781547128960819,809075623,0.1459711641073227,-0.005101835820823908,-0.00023468027939088643,0.9892756938934326,-0.09781642258167267,-0.022297652438282967,10.293197631835938,0.41207632422447205,0.0961308553814888,0.6501848101615906
1781547128989256,809092290,0.14596319198608398,-0.00510319322347641,-0.00022625258134212345,0.9892768859863281,-0.09700104594230652,-0.02670711651444435,10.319109916687012,0.4733418822288513,0.15789589285850525,0.6407976746559143
1781547128991819,809108957,0.14596271514892578,-0.005112415179610252,-0.00022616219939664006,0.9892768859863281,-0.10271906107664108,-0.03012937493622303,10.333044052124023,0.40901559591293335,0.2030382603406906,0.58852219581604
1781547129019354,809125624,0.14596626162528992,-0.005124642048031092,-0.00022957095643505454,0.9892762899398804,-0.09804529696702957,-0.028802772983908653,10.34138298034668,0.3823399245738983,0.22003228962421417,0.5622691512107849
1781547129049248,809142291,0.14596998691558838,-0.005134911276400089,-0.00022121184156276286,0.9892756938934326,-0.093377985060215,-0.035486526787281036,10.309000968933105,0.464364618062973,0.21849554777145386,0.5573387742042542
1781547129051757,809158958,0.14597056806087494,-0.0051458715461194515,-0.00022426494979299605,0.9892755746841431,-0.11380238831043243,-0.024872703477740288,10.322915077209473,0.38604098558425903,0.21177218854427338,0.5790711045265198
1781547129079309,809175625,0.145982563495636,-0.005143899004906416,-0.00023484528355766088,0.9892737865447998,-0.10780834406614304,-0.022801898419857025,10.325136184692383,0.3481854200363159,0.11631366610527039,0.49440836906433105
1781547129081421,809192292,0.14598585665225983,-0.005145890638232231,-0.00023718336888123304,0.9892732501029968,-0.10666395723819733,-0.03172095865011215,10.3239164352417,0.4000127613544464,0.15150552988052368,0.5522546172142029
1781547129109211,809208959,0.1459888070821762,-0.005137359257787466,-0.00023471224994864315,0.9892728924751282,-0.11280110478401184,-0.032035745680332184,10.309021949768066,0.44296523928642273,0.08469479531049728,0.5807743668556213
1781547129111078,809225626,0.14598798751831055,-0.005136311054229736,-0.00023595444508828223,0.9892730116844177,-0.079670749604702,-0.01953682117164135,10.3257474899292,0.4102065861225128,0.13184776902198792,0.6026347279548645
1781547129139171,809242293,0.14597830176353455,-0.005138147622346878,-0.0002369812282267958,0.9892744421958923,-0.10300588607788086,-0.027919592335820198,10.30436897277832,0.4086570143699646,0.15167199075222015,0.6423088908195496
1781547129142019,809258960,0.14597788453102112,-0.005134303588420153,-0.00024423180730082095,0.9892745018005371,-0.1008240133523941,-0.016404062509536743,10.310938835144043,0.3723253905773163,0.1068497896194458,0.5833484530448914
1781547129169429,809275627,0.1459781527519226,-0.005127614364027977,-0.00024126406060531735,0.9892745614051819,-0.11638803780078888,-0.025087183341383934,10.316871643066406,0.4446684420108795,0.0977572649717331,0.5787380933761597
1781547129199039,809292294,0.1459726095199585,-0.0051309638656675816,-0.00025013048434630036,0.9892753958702087,-0.12005327641963959,-0.0360410176217556,10.323881149291992,0.3539610803127289,0.15415643155574799,0.6178615093231201
1781547129201018,809308961,0.14597822725772858,-0.005142743233591318,-0.0002581550506874919,0.9892743825912476,-0.11246099323034286,-0.028237732127308846,10.318269729614258,0.35145100951194763,0.21236127614974976,0.5466710329055786
1781547129229540,809325628,0.14597633481025696,-0.00514798192307353,-0.0002503732976038009,0.9892746210098267,-0.11252576112747192,-0.026585688814520836,10.32438850402832,0.4653379023075104,0.18368789553642273,0.5959883332252502
1781547129231663,809342295,0.1460377275943756,-0.0049478430300951,-0.0002858139050658792,0.9892666339874268,-0.10663928091526031,-0.027104228734970093,10.31894588470459,0.4176086187362671,0.17250792682170868,0.5996124148368835
1781547129259704,809358962,0.14604704082012177,-0.004954428877681494,-0.0002802658127620816,0.9892652034759521,-0.10059837996959686,-0.02584153041243553,10.29459285736084,0.4492532014846802,0.1921016424894333,0.5173829197883606
1781547129262011,809375629,0.14605729281902313,-0.004959113895893097,-0.00028849372756667435,0.989263653755188,-0.10357768833637238,-0.014605230651795864,10.31143569946289,0.3573932349681854,0.1652979552745819,0.511261522769928
1781547129289498,809392296,0.14605726301670074,-0.004964498337358236,-0.00028033903799951077,0.9892635941505432,-0.10429690778255463,-0.03048732876777649,10.31541633605957,0.46788641810417175,0.18647967278957367,0.5856024026870728
1781547129291550,809408963,0.14605644345283508,-0.004967883229255676,-0.0002683389757294208,0.9892637729644775,-0.08870424330234528,-0.0258917398750782,10.312498092651367,0.4959706664085388,0.1767084002494812,0.5879971385002136
1781547129319196,809425630,0.14604750275611877,-0.004969331901520491,-0.0002749251725617796,0.9892651438713074,-0.09932558238506317,-0.020860016345977783,10.318488121032715,0.3713008761405945,0.14485901594161987,0.6440120935440063
1781547129349133,809442297,0.1460346281528473,-0.004973339382559061,-0.0002757516340352595,0.9892670512199402,-0.10296973586082458,-0.017394673079252243,10.31894588470459,0.40778619050979614,0.16800010204315186,0.6672428250312805
1781547129352600,809458964,0.14603906869888306,-0.004976322874426842,-0.0002784292446449399,0.9892662763595581,-0.1095896065235138,-0.02722579799592495,10.35441780090332,0.39675986766815186,0.15931738913059235,0.5501671433448792
1781547129379388,809475631,0.14603731036186218,-0.004973399452865124,-0.0002700219629332423,0.9892665147781372,-0.09351424127817154,-0.030930615961551666,10.306586265563965,0.4777856767177582,0.130195751786232,0.6013285517692566
1781547129381781,809492298,0.14604103565216064,-0.004964101128280163,-0.00027233813307248056,0.989266037940979,-0.10498671978712082,-0.015510011464357376,10.30770206451416,0.4115128517150879,0.07612734287977219,0.5578125715255737
1781547129409261,809508965,0.14603228867053986,-0.0049652522429823875,-0.0002743771765381098,0.9892673492431641,-0.09867508709430695,-0.018743040040135384,10.314021110534668,0.4025483727455139,0.14738185703754425,0.6419374942779541
1781547129411828,809525632,0.14603449404239655,-0.004966319538652897,-0.0002784562821034342,0.9892669916152954,-0.0856894999742508,-0.024318208917975426,10.312501907348633,0.38901209831237793,0.14484621584415436,0.5701707601547241
1781547129440052,809542299,0.14603178203105927,-0.00497722253203392,-0.00026789025287143886,0.9892673492431641,-0.10852315276861191,-0.021353334188461304,10.309880256652832,0.4785156548023224,0.2263842523097992,0.610677182674408
1781547129441115,809558966,0.14602966606616974,-0.0049794684164226055,-0.0002677670563571155,0.9892676472663879,-0.09949330240488052,-0.025455305352807045,10.315155982971191,0.4163023829460144,0.15705066919326782,0.603556752204895
1781547129469402,809575633,0.14603498578071594,-0.004977227654308081,-0.00027310330187901855,0.9892668724060059,-0.10204023122787476,-0.0381510853767395,10.30592155456543,0.3838895261287689,0.12106482684612274,0.5528436899185181
1781547129499029,809592300,0.14603811502456665,-0.004974427167326212,-0.00027205469086766243,0.9892664551734924,-0.10239363461732864,-0.030301101505756378,10.311890602111816,0.42786651849746704,0.12371575087308884,0.5605403184890747
1781547129501600,809608967,0.14604227244853973,-0.004979908932000399,-0.0002677006705198437,0.9892658591270447,-0.10697474330663681,-0.018542490899562836,10.278610229492188,0.44204315543174744,0.1833420991897583,0.5560836791992188
1781547129529854,809625634,0.14604409039020538,-0.004989728797227144,-0.00026297123986296356,0.9892655611038208,-0.09580301493406296,-0.02104240283370018,10.319832801818848,0.44017350673675537,0.2132321149110794,0.5710671544075012
1781547129530990,809642301,0.14603669941425323,-0.004978306591510773,-0.0002657148870639503,0.9892666339874268,-0.11656251549720764,-0.018413832411170006,10.324256896972656,0.4104114770889282,0.06118233501911163,0.6335365176200867
1781547129559040,809658968,0.1460380256175995,-0.004977662581950426,-0.0002603154571261257,0.9892664551734924,-0.12089331448078156,-0.03053353913128376,10.322419166564941,0.45513132214546204,0.14270754158496857,0.5770860910415649
1781547129561975,809675635,0.1460379660129547,-0.004968888591974974,-0.0002612964890431613,0.9892665147781372,-0.09924690425395966,-0.01631823368370533,10.285937309265137,0.42002904415130615,0.08098094165325165,0.5807743072509766
1781547129589069,809692302,0.14604197442531586,-0.004968918394297361,-0.000252363330218941,0.9892659187316895,-0.08983036875724792,-0.01264534704387188,10.328644752502441,0.4786309003829956,0.15086518228054047,0.5612829923629761
1781547129591542,809708969,0.14603383839130402,-0.004956867545843124,-0.0002557763073127717,0.9892671704292297,-0.09551692008972168,-0.020148351788520813,10.314396858215332,0.4064159095287323,0.05620066449046135,0.6394786834716797
1781547129619219,809725636,0.1460333615541458,-0.004953112453222275,-0.0002610887459013611,0.9892672300338745,-0.1070251539349556,-0.027969516813755035,10.315963745117188,0.3854903280735016,0.1108197420835495,0.5836429595947266
1781547129649055,809742303,0.14602947235107422,-0.004950845614075661,-0.00025628702132962644,0.9892678260803223,-0.10907790064811707,-0.02069193497300148,10.31311321258545,0.4526340365409851,0.13104097545146942,0.6120090484619141
1781547129651230,809758970,0.14601922035217285,-0.004955970216542482,-0.00024800156825222075,0.9892692565917969,-0.1083952784538269,-0.03121330961585045,10.319156646728516,0.46880850195884705,0.18484044075012207,0.6428850889205933
1781547129679032,809775637,0.1460162252187729,-0.0049590361304581165,-0.0002497998357284814,0.9892697930335999,-0.09070369601249695,-0.013679134659469128,10.301279067993164,0.4024202823638916,0.16066204011440277,0.6011364459991455
1781547129681210,809792304,0.14600999653339386,-0.004961738362908363,-0.0002563257876317948,0.9892707467079163,-0.10302695631980896,-0.031549300998449326,10.319550514221191,0.370430052280426,0.15347768366336823,0.6305269598960876
1781547129709470,809808971,0.14600184559822083,-0.004964413121342659,-0.0002552621881477535,0.9892719388008118,-0.10508684813976288,-0.020005304366350174,10.313942909240723,0.42215490341186523,0.16085413098335266,0.6319484710693359
1781547129710726,809825638,0.14599616825580597,-0.004959092475473881,-0.00025715510128065944,0.9892727732658386,-0.09811646491289139,-0.029807593673467636,10.310235023498535,0.41011694073677063,0.1035713478922844,0.6200385689735413
1781547129739483,809842305,0.14599233865737915,-0.0049558961763978004,-0.00026359205367043614,0.9892733097076416,-0.09975115209817886,-0.028319984674453735,10.321263313293457,0.37720468640327454,0.11343225091695786,0.6016359329223633
1781547129740938,809858972,0.14599601924419403,-0.004954385571181774,-0.0002579952706582844,0.9892727732658386,-0.10190081596374512,-0.024625878781080246,10.335221290588379,0.45757725834846497,0.13707275688648224,0.5563014149665833
1781547129769393,809875639,0.1459953933954239,-0.004952885210514069,-0.00025070554693229496,0.9892728924751282,-0.10146772861480713,-0.015356234274804592,10.31299877166748,0.4688596725463867,0.1387760043144226,0.5940545201301575
1781547129799753,809892306,0.14598973095417023,-0.0049593206495046616,-0.00026058859657496214,0.989273726940155,-0.11206434667110443,-0.035197190940380096,10.303199768066406,0.3438825011253357,0.17551742494106293,0.6233939528465271
1781547129800861,809908973,0.14599429070949554,-0.0049654534086585045,-0.0002543465234339237,0.9892730116844177,-0.1070641353726387,-0.023559903725981712,10.312237739562988,0.4542475938796997,0.1896684467792511,0.5542780160903931
1781547129829496,809925640,0.14599528908729553,-0.004973545204848051,-0.00024907232727855444,0.9892728328704834,-0.10619904845952988,-0.017201557755470276,10.326423645019531,0.44564175605773926,0.2020137757062912,0.5746400952339172
1781547129830424,809942307,0.14599332213401794,-0.004971031099557877,-0.00023725036589894444,0.9892731308937073,-0.09828133136034012,-0.025072788819670677,10.322042465209961,0.5005809664726257,0.1364068239927292,0.6001887321472168
1781547129859151,809958974,0.1459951400756836,-0.004974077921360731,-0.0002305763482581824,0.9892728328704834,-0.09373239427804947,-0.02211526595056057,10.319328308105469,0.4602409899234772,0.16911424696445465,0.5676222443580627
1781547129861660,809975641,0.14599363505840302,-0.004974280949681997,-0.0002285775262862444,0.9892730712890625,-0.1041606143116951,-0.019261453300714493,10.319438934326172,0.43114495277404785,0.14505112171173096,0.5976402759552002
1781547129889407,809992308,0.14599385857582092,-0.004970247857272625,-0.0002270393742946908,0.9892730116844177,-0.08819249272346497,-0.02057739906013012,10.333873748779297,0.4323871433734894,0.11578860878944397,0.5786228775978088
1781547129919007,810008975,0.14599470794200897,-0.004977939650416374,-0.00022467591043096036,0.9892728328704834,-0.10546915233135223,-0.03261842206120491,10.309802055358887,0.4262017607688904,0.1964045912027359,0.5807487964630127
1781547129921440,810025642,0.1459958255290985,-0.004991942085325718,-0.00022124320094008,0.9892725944519043,-0.1067962795495987,-0.033448267728090286,10.32209300994873,0.42714932560920715,0.24036873877048492,0.5757670402526855
1781547129949059,810042309,0.14598621428012848,-0.005007027182728052,-0.0002254239225294441,0.9892739653587341,-0.11044364422559738,-0.023559827357530594,10.332077980041504,0.37395179271698,0.24006140232086182,0.6496341228485107
1781547129951660,810058976,0.14598627388477325,-0.00500577362254262,-0.00022322620498016477,0.9892739653587341,-0.10461444407701492,-0.03231091797351837,10.324847221374512,0.4340648353099823,0.13534390926361084,0.5781363248825073
1781547129978992,810075643,0.14598914980888367,-0.005002182442694902,-0.00022652969346381724,0.9892735481262207,-0.11511096358299255,-0.039191655814647675,10.315634727478027,0.39901378750801086,0.11398289352655411,0.5646767616271973
1781547129981033,810092310,0.14598610997200012,-0.004990642424672842,-0.0002306186652276665,0.9892740845680237,-0.09516645222902298,-0.027207784354686737,10.307348251342773,0.4014214277267456,0.059030864387750626,0.6113430857658386
1781547130009199,810108977,0.14598749577999115,-0.004988479427993298,-0.0002442438271827996,0.9892738461494446,-0.10962863266468048,-0.037264078855514526,10.321624755859375,0.32732388377189636,0.11332978308200836,0.5784180164337158
1781547130010976,810125644,0.14599192142486572,-0.004995450843125582,-0.00024686800315976143,0.9892731308937073,-0.10358157753944397,-0.024629490450024605,10.320526123046875,0.39322537183761597,0.1865052878856659,0.5492323040962219
1781547130039593,810142311,0.1459944248199463,-0.004992456641048193,-0.00025009267847053707,0.9892727732658386,-0.0956885814666748,-0.02433251403272152,10.31955337524414,0.3990650773048401,0.11813218146562576,0.5599768757820129
1781547130041905,810158978,0.14600294828414917,-0.005000630859285593,-0.0002460093528497964,0.9892714619636536,-0.10514439642429352,-0.033441271632909775,10.339770317077637,0.4377146065235138,0.20145028829574585,0.5191373825073242
1781547130070088,810175645,0.14600610733032227,-0.004993065260350704,-0.0002430565800750628,0.9892711043357849,-0.09808821231126785,-0.03967801854014397,10.304648399353027,0.445705771446228,0.09324943274259567,0.5546749830245972
1781547130099728,810192312,0.14600679278373718,-0.005001106299459934,-0.00025192651082761586,0.9892709255218506,-0.09633944928646088,-0.023356210440397263,10.327690124511719,0.3494148552417755,0.18744012713432312,0.5814530253410339
1781547130100463,810208979,0.1460021436214447,-0.004999029450118542,-0.00024939171271398664,0.9892716407775879,-0.10049500316381454,-0.025895316153764725,10.319246292114258,0.4370487332344055,0.13008052110671997,0.6143398880958557
1781547130129610,810225646,0.14600494503974915,-0.0049919020384550095,-0.0002482554700691253,0.9892712831497192,-0.07963498681783676,-0.024286024272441864,10.330382347106934,0.4327969551086426,0.09436359256505966,0.5670843720436096
1781547130131149,810242313,0.14600729942321777,-0.004995026625692844,-0.0002429677260806784,0.9892709851264954,-0.10507969558238983,-0.027383020147681236,10.301794052124023,0.45072585344314575,0.16829463839530945,0.5686595439910889
1781547130159067,810258980,0.1460106521844864,-0.0049947467632591724,-0.0002457735245116055,0.9892703890800476,-0.10290536284446716,-0.018356671556830406,10.310137748718262,0.39923158288002014,0.13700874149799347,0.5576845407485962
1781547130160649,810275647,0.14600898325443268,-0.004992461297661066,-0.00023429015709552914,0.9892706274986267,-0.09567785263061523,-0.011390220373868942,10.316367149353027,0.49823737144470215,0.13768745958805084,0.5905583500862122
1781547130189020,810292314,0.14601381123065948,-0.00499834306538105,-0.0002318125480087474,0.9892698526382446,-0.10400683432817459,-0.03967801854014397,10.310201644897461,0.42901909351348877,0.18422573804855347,0.547938883304596
1781547130190381,810308981,0.14601482450962067,-0.00500863092020154,-0.00022676393564324826,0.9892696738243103,-0.09105417877435684,-0.0333554781973362,10.302055358886719,0.4419022798538208,0.21675387024879456,0.5804157257080078
1781547130219180,810325648,0.146010622382164,-0.0050113992765545845,-0.00021911220392212272,0.9892703294754028,-0.09297066181898117,-0.0393025167286396,10.318580627441406,0.4670795500278473,0.16821780800819397,0.6104082465171814
1781547130249041,810342315,0.14599764347076416,-0.005020543932914734,-0.00021222241048235446,0.9892722368240356,-0.1009599044919014,-0.036416519433259964,10.316370964050293,0.45507997274398804,0.21074768900871277,0.6725445985794067
1781547130250643,810358982,0.1460043489933014,-0.00502378074452281,-0.00020459234656300396,0.9892712235450745,-0.10293754935264587,-0.020109012722969055,10.317876815795898,0.46670815348625183,0.17145779728889465,0.542201578617096
1781547130278996,810375649,0.14600415527820587,-0.005015765782445669,-0.0001991209719562903,0.989271342754364,-0.10982175171375275,-0.027887264266610146,10.299448013305664,0.4631352424621582,0.09272436797618866,0.5831819176673889
1781547130280871,810392316,0.14600060880184174,-0.005012058187276125,-0.00020821593352593482,0.989271879196167,-0.10129575431346893,-0.04055051505565643,10.311314582824707,0.3594166040420532,0.10732360929250717,0.6169650554656982
1781547130309038,810408983,0.14600327610969543,-0.005014740861952305,-0.00020739923638757318,0.9892714619636536,-0.09983731061220169,-0.026127904653549194,10.30488109588623,0.42096391320228577,0.1608029156923294,0.553932249546051
1781547130310563,810425650,0.14600566029548645,-0.005013986956328154,-0.0002102287398884073,0.9892711043357849,-0.09717628359794617,-0.025752268731594086,10.307723999023438,0.39939799904823303,0.13379433751106262,0.5639852285385132
1781547130339883,810442317,0.14600248634815216,-0.005018392112106085,-0.000201877424842678,0.9892715811729431,-0.10279450565576553,-0.025573458522558212,10.315945625305176,0.4701402187347412,0.18001243472099304,0.6064254641532898
1781547130340688,810458984,0.14600537717342377,-0.005029276944696903,-0.00019745063036680222,0.9892711043357849,-0.09646069258451462,-0.032017603516578674,10.316153526306152,0.4371895492076874,0.22022438049316406,0.5626533031463623
1781547130369680,810475651,0.1460045725107193,-0.005030321888625622,-0.00019875973521266133,0.9892712235450745,-0.11349451541900635,-0.017970440909266472,10.308954238891602,0.40790143609046936,0.14750991761684418,0.5917109847068787
1781547130398996,810492318,0.14599928259849548,-0.005030496511608362,-0.00020273336849641055,0.9892719984054565,-0.10487943142652512,-0.023996351286768913,10.308384895324707,0.3905232548713684,0.13889126479625702,0.6200898289680481
1781547130401234,810508985,0.14600563049316406,-0.005037957336753607,-0.00021898145496379584,0.9892709255218506,-0.10446816682815552,-0.02260163053870201,10.32652759552002,0.30008476972579956,0.17623457312583923,0.5397043824195862
1781547130429055,810525652,0.14600646495819092,-0.0050328802317380905,-0.0002174252731492743,0.989270806312561,-0.10467559099197388,-0.02444695308804512,10.335439682006836,0.43357816338539124,0.10874512046575546,0.5796858072280884
1781547130431250,810542319,0.14601151645183563,-0.005032950080931187,-0.00021264162205625325,0.9892700910568237,-0.10039486736059189,-0.03262573853135109,10.325916290283203,0.45050811767578125,0.14706170558929443,0.5578894019126892
1781547130459000,810558986,0.1460159868001938,-0.0050307754427194595,-0.00021185429068282247,0.9892694354057312,-0.10301265120506287,-0.034159932285547256,10.298300743103027,0.425586998462677,0.1277625560760498,0.552792489528656
1781547130461656,810575653,0.1460227370262146,-0.005039757117629051,-0.0002188677026424557,0.9892683625221252,-0.1015857458114624,-0.024525629356503487,10.292696952819824,0.3613951802253723,0.19580906629562378,0.5339991450309753
1781547130489455,810592320,0.14601972699165344,-0.005044939927756786,-0.00022354847169481218,0.9892687797546387,-0.10857722908258438,-0.022429972887039185,10.329538345336914,0.380713552236557,0.17227740585803986,0.6045429706573486
1781547130491162,810608987,0.1460302472114563,-0.005047982558608055,-0.00022169783187564462,0.9892672300338745,-0.0927814319729805,-0.01790977083146572,10.31624984741211,0.42780250310897827,0.1643630862236023,0.5116840600967407
1781547130519934,810625654,0.14603760838508606,-0.005047274753451347,-0.00021675087918993086,0.9892661571502686,-0.09845298528671265,-0.035611871629953384,10.320576667785645,0.45258280634880066,0.14197759330272675,0.5242342948913574
1781547130549756,810642321,0.14604023098945618,-0.005046237260103226,-0.00021510849182959646,0.9892657995223999,-0.10337351262569427,-0.0349215529859066,10.307402610778809,0.43031254410743713,0.13635562360286713,0.5545341372489929
1781547130552421,810658988,0.1460462510585785,-0.005047809332609177,-0.00021101573656778783,0.989264965057373,-0.1073005199432373,-0.019654834643006325,10.299251556396484,0.4442843198776245,0.15660245716571808,0.5488481521606445
1781547130579054,810675655,0.14604173600673676,-0.005044617224484682,-0.0002051100746029988,0.989265501499176,-0.10105247050523758,-0.023291723802685738,10.304186820983887,0.46109896898269653,0.12590563297271729,0.6204867959022522
1781547130581206,810692322,0.14604566991329193,-0.005044414196163416,-0.00020498943922575563,0.989264965057373,-0.11056560277938843,-0.03673480078577995,10.319003105163574,0.41901731491088867,0.140504851937294,0.5602585673332214
1781547130609094,810708989,0.14605411887168884,-0.0050402139313519,-0.00020495442731771618,0.9892637133598328,-0.09847086668014526,-0.027443815022706985,10.32011890411377,0.4227311909198761,0.11325295269489288,0.520187497138977
1781547130611182,810725656,0.14604875445365906,-0.0050475806929171085,-0.00019879601313732564,0.9892644882202148,-0.09511321783065796,-0.025298265740275383,10.322754859924316,0.4522625803947449,0.1980309784412384,0.6163503527641296
1781547130639083,810742323,0.14604060351848602,-0.005037730094045401,-0.00019562296802178025,0.9892657399177551,-0.10135328769683838,-0.035983797162771225,10.302423477172852,0.44911226630210876,0.07784339040517807,0.640016496181488
1781547130641269,810758990,0.14603693783283234,-0.005025767255574465,-0.00019207644800189883,0.9892663359642029,-0.10447174310684204,-0.034789346158504486,10.318134307861328,0.4539531171321869,0.06394851207733154,0.603236734867096
1781547130669256,810775657,0.1460268646478653,-0.005033201538026333,-0.00018529905355535448,0.9892677664756775,-0.10191475600004196,-0.022533681243658066,10.319753646850586,0.4563094675540924,0.1990555077791214,0.6453183889389038
1781547130699067,810792324,0.14602434635162354,-0.005043637938797474,-0.00018868892220780253,0.9892681837081909,-0.08872178941965103,-0.029914790764451027,10.318838119506836,0.38431215286254883,0.20933900773525238,0.5977299213409424
1781547130701273,810808991,0.1460132598876953,-0.005044322926551104,-0.00019271209021098912,0.9892697930335999,-0.0975835919380188,-0.02105657383799553,10.310538291931152,0.3894730806350708,0.14228492975234985,0.6488528251647949
1781547130729266,810825658,0.1460096687078476,-0.005044920835644007,-0.00018558713782113045,0.9892703294754028,-0.10781192034482956,-0.022286923602223396,10.303238868713379,0.46577340364456177,0.15292702615261078,0.6031598448753357
1781547130731620,810842325,0.14600878953933716,-0.005044256336987019,-0.00018987825023941696,0.9892704486846924,-0.0953885018825531,-0.026957569643855095,10.306157112121582,0.38940906524658203,0.13291069865226746,0.5829129815101624
1781547130760341,810858992,0.14600515365600586,-0.005047928541898727,-0.00019356045231688768,0.9892709851264954,-0.1073148250579834,-0.021339228376746178,10.316471099853516,0.38914012908935547,0.16300562024116516,0.6004961729049683
1781547130761547,810875659,0.14600145816802979,-0.00504299346357584,-0.00017987449245993048,0.9892715215682983,-0.0960528776049614,-0.024990422651171684,10.298311233520508,0.5157181024551392,0.12184601277112961,0.624059796333313
1781547130790111,810892326,0.1459963470697403,-0.005045308265835047,-0.00017686793580651283,0.9892722964286804,-0.10912081599235535,-0.018632039427757263,10.320719718933105,0.4358065128326416,0.16045716404914856,0.6274791359901428
1781547130791592,810908993,0.1459960788488388,-0.005052309017628431,-0.00017405477410648018,0.9892722368240356,-0.09334294497966766,-0.02879936248064041,10.313048362731934,0.43004360795021057,0.19217848777770996,0.5816707611083984
1781547130819658,810925660,0.14599671959877014,-0.00505137350410223,-0.00017693622794467956,0.9892721772193909,-0.10740098357200623,-0.01316770724952221,10.305785179138184,0.39933398365974426,0.13250090181827545,0.5774702429771423
1781547130849985,810942327,0.1459900289773941,-0.005046169739216566,-0.00018436243408359587,0.989273190498352,-0.08941198140382767,-0.036781199276447296,10.316693305969238,0.37240222096443176,0.09885860234498978,0.6343689560890198
1781547130850930,810958994,0.14598172903060913,-0.0050463746301829815,-0.0001728523930069059,0.9892744421958923,-0.11228933185338974,-0.019096946343779564,10.308525085449219,0.4958297908306122,0.15464307367801666,0.6320509910583496
1781547130879046,810975661,0.14597539603710175,-0.005029770080000162,-0.0001780351740308106,0.9892753958702087,-0.10410697013139725,-0.028269918635487556,10.339945793151855,0.399013876914978,0.023544473573565483,0.6378906965255737
1781547130881233,810992328,0.14598385989665985,-0.0050302972085773945,-0.00018728688883129507,0.9892741441726685,-0.11441002041101456,-0.01629677601158619,10.328287124633789,0.35465264320373535,0.13608665764331818,0.5342744588851929
1781547130909090,811008995,0.14598290622234344,-0.005024000536650419,-0.00018001954595092684,0.989274263381958,-0.10094203054904938,-0.035354387015104294,10.316009521484375,0.4736492931842804,0.10620947182178497,0.5877026319503784
1781547130911815,811025662,0.14598485827445984,-0.005019375588744879,-0.0001623915886739269,0.9892740845680237,-0.09869573265314102,-0.017044100910425186,10.310210227966309,0.5426177978515625,0.1279994547367096,0.5674493312835693
1781547130939832,811042329,0.145988330245018,-0.005015789531171322,-0.0001493015151936561,0.9892736077308655,-0.11357319355010986,-0.018063422292470932,10.317801475524902,0.5107620358467102,0.13055433332920074,0.5546877980232239
1781547130941855,811058996,0.1459900289773941,-0.005014565773308277,-0.0001574877096572891,0.9892733097076416,-0.1017681285738945,-0.03316574543714523,10.297205924987793,0.36362990736961365,0.12523970007896423,0.5652787089347839
1781547130970744,811075663,0.1459955871105194,-0.0050054448656737804,-0.00016289731138385832,0.9892725348472595,-0.1011241152882576,-0.02949649654328823,10.305428504943848,0.39044639468193054,0.07434725761413574,0.5499110221862793
1781547130999203,811092330,0.14598990976810455,-0.004996987991034985,-0.00016225148283410817,0.9892734885215759,-0.09630368649959564,-0.021839898079633713,10.306089401245117,0.43058153986930847,0.08484847098588943,0.6246745586395264
1781547131001554,811108997,0.14598767459392548,-0.00499561196193099,-0.0001613199128769338,0.9892737865447998,-0.11301887780427933,-0.017852427437901497,10.314790725708008,0.42566388845443726,0.13334612548351288,0.5899437069892883
1781547131029045,811125664,0.1459815502166748,-0.005009064916521311,-0.00015699618961662054,0.9892747402191162,-0.10495810955762863,-0.03021179884672165,10.320801734924316,0.43360379338264465,0.23755136132240295,0.6336517333984375
1781547131031217,811142331,0.14597681164741516,-0.005013118498027325,-0.00016684149159118533,0.9892752766609192,-0.10688211023807526,-0.02306296117603779,10.32797622680664,0.3466742932796478,0.15940701961517334,0.6213448643684387
1781547131059004,811158998,0.14597010612487793,-0.005007355939596891,-0.00018134122365154326,0.9892763495445251,-0.1123182401061058,-0.02839159220457077,10.320515632629395,0.32486507296562195,0.08801163733005524,0.6275175213813782
1781547131061405,811175665,0.1459682285785675,-0.00501472782343626,-0.00018259638454765081,0.9892765879631042,-0.09297747910022736,-0.02411777898669243,10.325172424316406,0.4020233452320099,0.19062891602516174,0.5942338109016418
1781547131089028,811192332,0.1459701657295227,-0.005012908019125462,-0.00017074611969292164,0.9892763495445251,-0.11494962126016617,-0.011676197871565819,10.300389289855957,0.5003376603126526,0.14129886031150818,0.5857688188552856
1781547131091202,811208999,0.14596790075302124,-0.005008523352444172,-0.0001639489346416667,0.9892767071723938,-0.113461934030056,-0.02139992080628872,10.303400993347168,0.4685267508029938,0.11874686926603317,0.5971665382385254
1781547131119203,811225666,0.1459665596485138,-0.004995040595531464,-0.00016889770631678402,0.9892770051956177,-0.09935776889324188,-0.015520739369094372,10.325078964233398,0.39782285690307617,0.045110367238521576,0.59425950050354
1781547131149500,811242333,0.14595508575439453,-0.004993927665054798,-0.00017592044605407864,0.9892786741256714,-0.10452144593000412,-0.03682050481438637,10.326834678649902,0.37085267901420593,0.12712223827838898,0.6603401899337769
1781547131150867,811259000,0.14594681560993195,-0.0049769203178584576,-0.00017552119970787317,0.9892799258232117,-0.08155898004770279,-0.025823792442679405,10.30828857421875,0.4374200701713562,0.02647712640464306,0.6403751373291016
1781547131179533,811275667,0.1459490805864334,-0.00498548150062561,-0.00016923541261348873,0.9892795085906982,-0.11515387147665024,-0.02629227563738823,10.298232078552246,0.4522882401943207,0.2063935399055481,0.562243640422821
1781547131181803,811292334,0.14594653248786926,-0.004988099914044142,-0.00017022267275024205,0.9892799854278564,-0.10131002217531204,-0.03341236338019371,10.315642356872559,0.4084136486053467,0.15860024094581604,0.6094861626625061
1781547131210039,811309001,0.1459505707025528,-0.004984518978744745,-0.0001678590924711898,0.9892793893814087,-0.09495868533849716,-0.015928329899907112,10.317347526550293,0.43765053153038025,0.11983541399240494,0.5605146884918213
1781547131210720,811325668,0.14594636857509613,-0.004984201397746801,-0.00017984332225751132,0.9892799854278564,-0.09739472717046738,-0.009080104529857635,10.297903060913086,0.3366212844848633,0.12760886549949646,0.612751841545105
1781547131239434,811342335,0.14597471058368683,-0.004973885603249073,-0.0002806364791467786,0.9892758727073669,-0.09395411610603333,-0.02965391054749489,10.313309669494629,0.4122427999973297,0.16082853078842163,0.609089195728302
1781547131240398,811359002,0.14597266912460327,-0.004978063516318798,-0.0002794369065668434,0.9892760515213013,-0.10130643844604492,-0.024554092437028885,10.304265975952148,0.42251989245414734,0.1716691106557846,0.5962764024734497
1781547131269795,811375669,0.14596126973628998,-0.004971409682184458,-0.00027675845194607973,0.9892778396606445,-0.10368182510137558,-0.02380690723657608,10.299455642700195,0.44319573044776917,0.09930683672428131,0.6563574075698853
1781547131299062,811392336,0.1459522694349289,-0.0049658771604299545,-0.0002783774398267269,0.9892791509628296,-0.09651467949151993,-0.02453993447124958,10.305645942687988,0.412908673286438,0.10268770903348923,0.6439480781555176
1781547131300708,811409003,0.1459454447031021,-0.004967408254742622,-0.00027055450482293963,0.9892801642417908,-0.11092322319746017,-0.03778263181447983,10.314286231994629,0.4701787531375885,0.16017542779445648,0.6292080283164978
1781547131329083,811425670,0.14594165980815887,-0.004962526261806488,-0.0002651180839166045,0.9892807602882385,-0.10379226505756378,-0.030515776947140694,10.29644775390625,0.46030503511428833,0.11420061439275742,0.6206277012825012
1781547131330951,811442337,0.14593663811683655,-0.004953246563673019,-0.00026803079526871443,0.9892815351486206,-0.10113194584846497,-0.03659540042281151,10.320282936096191,0.40791425108909607,0.07585840672254562,0.6294896602630615
1781547131359530,811459004,0.1459258496761322,-0.004944836720824242,-0.00027583225164562464,0.9892832040786743,-0.09090039879083633,-0.018996886909008026,10.311378479003906,0.37360602617263794,0.07684449106454849,0.6635673642158508
1781547131363844,811475671,0.14591357111930847,-0.004935052245855331,-0.00027683074586093426,0.9892850518226624,-0.09362868219614029,-0.026531882584095,10.32189655303955,0.4211944341659546,0.07429604232311249,0.6695223450660706
1781547131389344,811492338,0.14591138064861298,-0.004936117213219404,-0.00027718444471247494,0.9892853498458862,-0.11349809169769287,-0.02774779312312603,10.287310600280762,0.41513699293136597,0.14881616830825806,0.6041843295097351
1781547131419011,811509005,0.14591239392757416,-0.004924440756440163,-0.0002884369168896228,0.9892852306365967,-0.09787335991859436,-0.02638878859579563,10.315902709960938,0.3538842499256134,0.05123180150985718,0.5743199586868286
1781547131420920,811525672,0.14590932428836823,-0.0049137226305902,-0.000297599850455299,0.9892857074737549,-0.10672801733016968,-0.021646728739142418,10.321993827819824,0.3669466972351074,0.059824854135513306,0.6045941114425659
1781547131449493,811542339,0.145905002951622,-0.004919704515486956,-0.0003065208438783884,0.9892863631248474,-0.08513844013214111,-0.030014950782060623,10.319632530212402,0.3518352210521698,0.17371171712875366,0.6121370792388916
1781547131450424,811559006,0.14590343832969666,-0.0049138725735247135,-0.00031404217588715255,0.9892866611480713,-0.09962955862283707,-0.01910409890115261,10.300085067749023,0.3733370900154114,0.09476058185100555,0.5922616124153137
1781547131479003,811575673,0.1458963304758072,-0.004906335845589638,-0.0003149454132653773,0.989287793636322,-0.08855047076940536,-0.025562729686498642,10.317687034606934,0.41983693838119507,0.0898045226931572,0.6323838829994202
1781547131481451,811592340,0.14589597284793854,-0.004906840156763792,-0.0003144211368635297,0.9892878532409668,-0.11160985380411148,-0.021256975829601288,10.311979293823242,0.42159146070480347,0.14588356018066406,0.5982166528701782
1781547131510214,811609007,0.14588719606399536,-0.004914179444313049,-0.0003198044141754508,0.9892889857292175,-0.101439468562603,-0.039295539259910583,10.329903602600098,0.3745025098323822,0.18649247288703918,0.632524847984314
1781547131511292,811625674,0.1458946317434311,-0.004914230201393366,-0.0003240490041207522,0.9892878532409668,-0.09031742066144943,-0.03895574435591698,10.30932903289795,0.38994693756103516,0.13811007142066956,0.5435847043991089
1781547131539002,811642341,0.14589999616146088,-0.004923489410430193,-0.0003151464043185115,0.9892871379852295,-0.102240189909935,-0.02014477550983429,10.325687408447266,0.470101922750473,0.2139493077993393,0.5532919764518738
1781547131541458,811659008,0.14590273797512054,-0.004931730218231678,-0.00031523400684818625,0.9892866015434265,-0.0938289538025856,-0.02416800893843174,10.306754112243652,0.40993764996528625,0.19797976315021515,0.5640621185302734
1781547131570115,811675675,0.14589959383010864,-0.004928082227706909,-0.00030992328538559377,0.9892870783805847,-0.10229025781154633,-0.034499671310186386,10.302803039550781,0.45837128162384033,0.12247352302074432,0.6066431403160095
1781547131599021,811692342,0.14590546488761902,-0.004930577706545591,-0.0003132516285404563,0.9892862439155579,-0.10076679289340973,-0.03749295696616173,10.319364547729492,0.39372479915618896,0.15565478801727295,0.548284649848938
1781547131601500,811709009,0.14590638875961304,-0.004931566771119833,-0.0003212268929928541,0.9892861247062683,-0.10454684495925903,-0.009412577375769615,10.330121994018555,0.3633865416049957,0.14072255790233612,0.5796729922294617
1781547131630099,811725676,0.14589571952819824,-0.004923718050122261,-0.00031108540133573115,0.989287793636322,-0.10436445474624634,-0.01777374930679798,10.296998977661133,0.4950742721557617,0.09870494902133942,0.6580991148948669
1781547131630768,811742343,0.14589697122573853,-0.0049287863075733185,-0.0003192758304066956,0.9892876148223877,-0.11732463538646698,-0.027533220127224922,10.326495170593262,0.35780301690101624,0.16823062300682068,0.5867165327072144
1781547131659367,811759010,0.14589615166187286,-0.004932559095323086,-0.0003204547392670065,0.9892876148223877,-0.09060712903738022,-0.020974602550268173,10.33406925201416,0.40687695145606995,0.16646336019039154,0.5895594954490662
1781547131661685,811775677,0.14589561522006989,-0.0049267117865383625,-0.00033377064391970634,0.9892877340316772,-0.09856384992599487,-0.03466775268316269,10.310566902160645,0.33393192291259766,0.08885685354471207,0.5885093808174133
1781547131689457,811792344,0.14590159058570862,-0.00492516253143549,-0.00031246410799212754,0.9892868399620056,-0.10005512833595276,-0.0336485356092453,10.332478523254395,0.5652787089347839,0.15286298096179962,0.5464661717414856
1781547131690584,811809011,0.14589594304561615,-0.00492891063913703,-0.00030620803590863943,0.9892876744270325,-0.11428443342447281,-0.01273829210549593,10.313345909118652,0.45724430680274963,0.1737373322248459,0.628362774848938
1781547131719221,811825678,0.14589664340019226,-0.004923694767057896,-0.0003083564224652946,0.9892876148223877,-0.10687103867530823,-0.026732059195637703,10.317748069763184,0.40922051668167114,0.10430131107568741,0.5900077223777771
1781547131749426,811842345,0.14589256048202515,-0.004914875607937574,-0.0003171185380779207,0.9892882704734802,-0.09894260764122009,-0.03459974005818367,10.331073760986328,0.3677791655063629,0.07313065975904465,0.6136482954025269
1781547131750635,811859012,0.14589080214500427,-0.004901426378637552,-0.00032559368992224336,0.9892885088920593,-0.11399193108081818,-0.03068390116095543,10.313302993774414,0.3745152950286865,0.04202403500676155,0.5927994847297668
1781547131779005,811875679,0.14588356018066406,-0.004899952095001936,-0.00033842536504380405,0.9892895817756653,-0.09760868549346924,-0.03348391503095627,10.321964263916016,0.33262571692466736,0.11901579052209854,0.6349195837974548
1781547131782130,811892346,0.14589010179042816,-0.004907651338726282,-0.0003423502203077078,0.9892885684967041,-0.11586911976337433,-0.030994988977909088,10.323570251464844,0.3844658434391022,0.1904880553483963,0.5430468916893005
1781547131809207,811909013,0.14588657021522522,-0.0049081891775131226,-0.0003465681220404804,0.9892891049385071,-0.10154640674591064,-0.03483225777745247,10.323501586914062,0.38935789465904236,0.1414141207933426,0.6097807884216309
1781547131812089,811925680,0.1458919793367386,-0.004897786770015955,-0.00035223978920839727,0.9892883896827698,-0.11000741273164749,-0.021807659417390823,10.317011833190918,0.3907921612262726,0.0657285824418068,0.5453904271125793
1781547131839002,811942347,0.14589345455169678,-0.0049068620428442955,-0.00034909832174889743,0.9892880916595459,-0.09899299591779709,-0.0436762198805809,10.317000389099121,0.4308760464191437,0.20686735212802887,0.5857688784599304
1781547131841865,811959014,0.14589187502861023,-0.004896041005849838,-0.0003504931810311973,0.9892883896827698,-0.112550750374794,-0.0328904427587986,10.322311401367188,0.42004185914993286,0.06697080284357071,0.5953479409217834
1781547131869192,811975681,0.14589455723762512,-0.004874781239777803,-0.00034750241320580244,0.9892881512641907,-0.10696473717689514,-0.034699946641922,10.297835350036621,0.4603818655014038,0.00040339998668059707,0.5797241926193237
1781547131898967,811992348,0.14589859545230865,-0.004876152146607637,-0.00035517392097972333,0.9892875552177429,-0.10393888503313065,-0.01996954157948494,10.317139625549316,0.3652178645133972,0.14359119534492493,0.5673276782035828
1781547131901200,812009015,0.14589297771453857,-0.004882581066340208,-0.00035673141246661544,0.9892883896827698,-0.09878914803266525,-0.027576133608818054,10.313538551330566,0.4014086425304413,0.18412330746650696,0.630783200263977
1781547131929040,812025682,0.14588972926139832,-0.004890316631644964,-0.00036774197360500693,0.9892887473106384,-0.09452273696660995,-0.022172484546899796,10.313835144042969,0.3360193967819214,0.18357260525226593,0.6025323271751404
1781547131931451,812042349,0.14589032530784607,-0.0048864129930734634,-0.00035861710784956813,0.9892886281013489,-0.10238681733608246,-0.024804573506116867,10.337495803833008,0.4846627116203308,0.1245993822813034,0.58366858959198
1781547131960305,812059016,0.14588603377342224,-0.004882313311100006,-0.00035767792724072933,0.9892893433570862,-0.09961845725774765,-0.03553309291601181,10.327129364013672,0.42907026410102844,0.11503303050994873,0.6175029277801514
1781547131961707,812075683,0.14587530493736267,-0.004884989932179451,-0.0003554652212187648,0.9892908930778503,-0.09811282157897949,-0.01806684210896492,10.306111335754395,0.4306070804595947,0.16228845715522766,0.6680240035057068
1781547131989154,812092350,0.14587830007076263,-0.004887525457888842,-0.00035897924681194127,0.9892904758453369,-0.10027327388525009,-0.026750029996037483,10.316828727722168,0.39231613278388977,0.15575723350048065,0.5683906078338623
1781547131991452,812109017,0.14588528871536255,-0.004874458070844412,-0.0003811545320786536,0.9892894625663757,-0.10298404097557068,-0.0466623529791832,10.321810722351074,0.28120821714401245,0.030933737754821777,0.5362594723701477
1781547132019333,812125684,0.14589039981365204,-0.004875657148659229,-0.00039329391438513994,0.9892886877059937,-0.09707972407341003,-0.024790268391370773,10.313835144042969,0.3349948823451996,0.13798201084136963,0.5585553646087646
1781547132049045,812142351,0.1458924263715744,-0.004876833409070969,-0.00039600938907824457,0.9892883896827698,-0.10453611612319946,-0.02906741201877594,10.326674461364746,0.3991547226905823,0.14724101126194,0.574499249458313
1781547132051139,812159018,0.1458909958600998,-0.004872712306678295,-0.00039695482701063156,0.9892885684967041,-0.11241450160741806,-0.0386015810072422,10.316017150878906,0.4162767827510834,0.11298401653766632,0.6003808379173279
1781547132079043,812175685,0.14588792622089386,-0.004856979940086603,-0.0004008604446426034,0.9892891049385071,-0.10149956494569778,-0.024100031703710556,10.304834365844727,0.40788862109184265,0.031010570004582405,0.6070401668548584
1781547132081228,812192352,0.14588956534862518,-0.004866583738476038,-0.0004029053379781544,0.9892888069152832,-0.1030627191066742,-0.03393463045358658,10.300592422485352,0.39512068033218384,0.20525377988815308,0.575280487537384
1781547132109016,812209019,0.1459014117717743,-0.004862572066485882,-0.0004073690506629646,0.9892871379852295,-0.09931900352239609,-0.021414486691355705,10.330582618713379,0.3927643597126007,0.11029469966888428,0.4999535381793976
1781547132111427,812225686,0.14590343832969666,-0.004873828496783972,-0.00041963087278418243,0.9892867207527161,-0.1108660027384758,-0.026531882584095,10.313070297241211,0.32416069507598877,0.2062782645225525,0.5729497075080872
1781547132139998,812242353,0.14590758085250854,-0.004890525713562965,-0.0004279579734429717,0.9892860651016235,-0.10639216750860214,-0.018220776692032814,10.314032554626465,0.3454192578792572,0.2471945881843567,0.5627430081367493
1781547132140779,812259020,0.14590488374233246,-0.004882739391177893,-0.00042669803951866925,0.989286482334137,-0.10497599095106125,-0.030508624389767647,10.310977935791016,0.43493565917015076,0.09025274962186813,0.6069761514663696
1781547132169365,812275687,0.1459006369113922,-0.004886341746896505,-0.0004423700156621635,0.9892870783805847,-0.10273755341768265,-0.0369030237197876,10.32712459564209,0.3084729313850403,0.15073712170124054,0.6087433695793152
1781547132199434,812292354,0.14590130746364594,-0.004877984058111906,-0.00043534376891329885,0.9892870187759399,-0.10055937618017197,-0.023577934131026268,10.291892051696777,0.4749426543712616,0.09219931811094284,0.5863323211669922
1781547132201265,812309021,0.14589126408100128,-0.00488273287191987,-0.00043845956679433584,0.9892885088920593,-0.09671137481927872,-0.03351978957653046,10.297967910766602,0.3924057185649872,0.17104800045490265,0.6554865837097168
1781547132229199,812325688,0.14589102566242218,-0.004888410679996014,-0.00044761650497093797,0.9892885684967041,-0.09348920732736588,-0.025083517655730247,10.308692932128906,0.35068264603614807,0.17139378190040588,0.5934910178184509
1781547132231746,812342355,0.14589615166187286,-0.004888234660029411,-0.00044591224286705256,0.989287793636322,-0.10931750386953354,-0.028763435781002045,10.325644493103027,0.4307224154472351,0.14256668090820312,0.5479516386985779
1781547132259055,812359022,0.145893856883049,-0.004889643285423517,-0.00045422010589390993,0.9892880916595459,-0.10298793017864227,-0.020173514261841774,10.299759864807129,0.36076125502586365,0.14319418370723724,0.6012516617774963
1781547132261596,812375689,0.1458992063999176,-0.0048901597037911415,-0.00044053784222342074,0.9892873167991638,-0.10612395405769348,-0.017408976331353188,10.317276000976562,0.5115432739257812,0.15929178893566132,0.5438408255577087
1781547132290299,812392356,0.14589984714984894,-0.004890535492449999,-0.0004425974912010133,0.989287257194519,-0.11529334634542465,-0.01969059742987156,10.30559253692627,0.4044053256511688,0.14247703552246094,0.5794168710708618
1781547132291796,812409023,0.1458909809589386,-0.004884893540292978,-0.0004585969727486372,0.9892886281013489,-0.11032599210739136,-0.019797883927822113,10.33635139465332,0.3152603209018707,0.0874609649181366,0.6477644443511963
1781547132319174,812425690,0.14588865637779236,-0.004880589433014393,-0.0004525318508967757,0.9892889857292175,-0.11273278295993805,-0.03413489833474159,10.295900344848633,0.46419811248779297,0.11874686926603317,0.6076036691665649
1781547132349023,812442357,0.145885169506073,-0.004873358178883791,-0.0004551600432023406,0.9892894625663757,-0.10325225442647934,-0.02917112223803997,10.30068588256836,0.40799111127853394,0.09012468159198761,0.6112790703773499
1781547132351614,812459024,0.14588487148284912,-0.004882944747805595,-0.0004554837942123413,0.9892894625663757,-0.10470777004957199,-0.017745140939950943,10.307287216186523,0.4067104458808899,0.2068033218383789,0.6003040671348572
1781547132379429,812475691,0.1458820253610611,-0.004872829653322697,-0.0004445491067599505,0.9892899394035339,-0.09727998822927475,-0.0353400819003582,10.304823875427246,0.5031166076660156,0.08410569280385971,0.6088074445724487
1781547132381994,812492358,0.14589190483093262,-0.004874345380812883,-0.0004387919616419822,0.9892884492874146,-0.10504036396741867,-0.019694173708558083,10.310072898864746,0.45668086409568787,0.15811358392238617,0.5224542617797852
1781547132409037,812509025,0.1458972543478012,-0.004865866154432297,-0.00042815666529349983,0.9892877340316772,-0.0913081169128418,-0.02029147930443287,10.325919151306152,0.49974867701530457,0.09497830271720886,0.5503721833229065
1781547132411159,812525692,0.14589594304561615,-0.004863361828029156,-0.0004253147926647216,0.9892879128456116,-0.09322495013475418,-0.03065536729991436,10.304777145385742,0.4404999911785126,0.12778174877166748,0.601424515247345
1781547132439399,812542359,0.14590100944042206,-0.004879932384938002,-0.0004422853817231953,0.9892871379852295,-0.10545162111520767,-0.034789346158504486,10.29952335357666,0.2867533564567566,0.23766665160655975,0.5547390580177307
1781547132441527,812559026,0.1459055095911026,-0.004866579547524452,-0.0004526538250502199,0.9892864227294922,-0.10203664004802704,-0.02239067293703556,10.330793380737305,0.3617217242717743,0.04078181833028793,0.5589138865470886
1781547132469744,812575693,0.14591285586357117,-0.004861165769398212,-0.0004411411064211279,0.9892853498458862,-0.10141728073358536,-0.02993633784353733,10.29132080078125,0.5026299953460693,0.11674907803535461,0.541894257068634
1781547132499911,812592360,0.14590337872505188,-0.004863451234996319,-0.00044514931505545974,0.9892868399620056,-0.10931392759084702,-0.021307043731212616,10.317268371582031,0.3887943625450134,0.15337523818016052,0.6632600426673889
1781547132501284,812609027,0.14590631425380707,-0.00486622704192996,-0.00044634370715357363,0.9892864227294922,-0.09280615299940109,-0.024718744680285454,10.309064865112305,0.40787583589553833,0.15965037047863007,0.5661751627922058
1781547132529942,812625694,0.1459057629108429,-0.004871772136539221,-0.0004476454923860729,0.9892865419387817,-0.10055937618017197,-0.03375224396586418,10.339287757873535,0.4042772352695465,0.17841164767742157,0.5973841547966003
1781547132530849,812642361,0.1459077149629593,-0.004877209663391113,-0.0004290003562346101,0.9892861247062683,-0.111173115670681,-0.02840922772884369,10.304574012756348,0.5401269793510437,0.19786450266838074,0.5779697895050049
1781547132560348,812659028,0.14590567350387573,-0.004880360793322325,-0.0004175904905423522,0.989286482334137,-0.09561347961425781,-0.02016623318195343,10.321545600891113,0.493102103471756,0.17481307685375214,0.6029164791107178
1781547132561994,812675695,0.1459072232246399,-0.004870988428592682,-0.0004208332684356719,0.9892863035202026,-0.0911467969417572,-0.02288057468831539,10.319965362548828,0.40614694356918335,0.07498758286237717,0.5779057145118713
1781547132589498,812692362,0.14590245485305786,-0.004866845905780792,-0.0004343090986367315,0.9892870187759399,-0.09599971026182175,-0.024368276819586754,10.332106590270996,0.33106333017349243,0.1002160832285881,0.6186938881874084
1781547132590881,812709029,0.1459062099456787,-0.00486783217638731,-0.0004369230882730335,0.9892863631248474,-0.10984320938587189,-0.010989684611558914,10.303982734680176,0.4000127613544464,0.14607563614845276,0.5617954134941101
1781547132619320,812725696,0.1459091454744339,-0.004869587253779173,-0.0004338505386840552,0.9892858862876892,-0.1019505187869072,-0.018188590183854103,10.319636344909668,0.4379194974899292,0.15699943900108337,0.5711055397987366
1781547132649009,812742363,0.14590856432914734,-0.004872702993452549,-0.0004379689344204962,0.989285945892334,-0.10890981554985046,-0.028781317174434662,10.333168029785156,0.38757774233818054,0.15904845297336578,0.5913651585578918
1781547132651180,812759030,0.14591090381145477,-0.00487172557041049,-0.00043548463145270944,0.9892857074737549,-0.08635110408067703,-0.030261866748332977,10.29624080657959,0.43666449189186096,0.13781553506851196,0.5712976455688477
1781547132679137,812775697,0.14590759575366974,-0.004873850382864475,-0.0004248012264724821,0.9892861843109131,-0.09943287074565887,-0.03046928532421589,10.324249267578125,0.48918333649635315,0.16715487837791443,0.6074115633964539
1781547132681247,812792364,0.1459040492773056,-0.004883041139692068,-0.00041557493386790156,0.9892866611480713,-0.09409359097480774,-0.022819777950644493,10.305785179138184,0.47212526202201843,0.21368034183979034,0.6112534403800964
1781547132709194,812809031,0.14590483903884888,-0.00489113200455904,-0.0004122121899854392,0.989286482334137,-0.09878557175397873,-0.021189028397202492,10.314257621765137,0.4334372878074646,0.20038734376430511,0.5863707065582275
1781547132711437,812825698,0.14591124653816223,-0.004890757147222757,-0.00040774192893877625,0.9892855286598206,-0.09555625915527344,-0.029557352885603905,10.318670272827148,0.4496629536151886,0.14393696188926697,0.5426626205444336
1781547132739157,812842365,0.14591825008392334,-0.004892211873084307,-0.00040722591802477837,0.9892844557762146,-0.08946272730827332,-0.032818980515003204,10.312773704528809,0.42095109820365906,0.1524403989315033,0.54377681016922
1781547132741494,812859032,0.14591571688652039,-0.00489013409242034,-0.00038443412631750107,0.9892849326133728,-0.0975041314959526,-0.028765661641955376,10.302239418029785,0.5758054852485657,0.15068590641021729,0.6052857041358948
1781547132769181,812875699,0.14591766893863678,-0.004889341536909342,-0.0003684032999444753,0.9892846941947937,-0.10404974967241287,-0.026868045330047607,10.298897743225098,0.5285499691963196,0.15267090499401093,0.5782002806663513
1781547132799041,812892366,0.14591720700263977,-0.004874564707279205,-0.00035586548619903624,0.989284873008728,-0.10668227821588516,-0.0307411327958107,10.290060997009277,0.5187788009643555,0.0540107786655426,0.5947204232215881
1781547132801181,812909033,0.1459178626537323,-0.0048758890479803085,-0.00034550522104837,0.9892846941947937,-0.1113380640745163,-0.032042816281318665,10.305868148803711,0.4879026710987091,0.1614048331975937,0.5811585783958435
1781547132829038,812925700,0.14592775702476501,-0.004876348655670881,-0.0003439370193518698,0.9892832636833191,-0.09833530336618423,-0.023957129567861557,10.31030559539795,0.42921119928359985,0.14670312404632568,0.5258863568305969
1781547132831161,812942367,0.1459219753742218,-0.004875017795711756,-0.00034669667365960777,0.989284098148346,-0.10825537145137787,-0.017852427437901497,10.292470932006836,0.4011909067630768,0.1300932914018631,0.6209350824356079
1781547132859425,812959034,0.1459219753742218,-0.0048698196187615395,-0.0003388446639291942,0.989284098148346,-0.11056600511074066,-0.02021997794508934,10.309886932373047,0.4773629903793335,0.1144823506474495,0.5881635546684265
1781547132861415,812975701,0.14592620730400085,-0.004866228438913822,-0.00032608414767310023,0.9892835021018982,-0.10627772659063339,-0.023574357852339745,10.336114883422852,0.5092765092849731,0.13034942746162415,0.554226815700531
1781547132889290,812992368,0.14592505991458893,-0.004859594162553549,-0.0003254272451158613,0.9892837405204773,-0.10291288048028946,-0.03747516870498657,10.314854621887207,0.42983874678611755,0.09751395136117935,0.5939521193504333
1781547132919131,813009035,0.1459294855594635,-0.004851961508393288,-0.0003290661843493581,0.9892831444740295,-0.09993353486061096,-0.02596326544880867,10.317296981811523,0.4017799496650696,0.08641083538532257,0.5540602803230286
1781547132921445,813025702,0.14592903852462769,-0.004851332399994135,-0.00033057312248274684,0.9892831444740295,-0.09964709728956223,-0.024321667850017548,10.311640739440918,0.40910524129867554,0.13617631793022156,0.589469850063324
1781547132949185,813042369,0.14592798054218292,-0.004850328434258699,-0.00031724199652671814,0.9892833232879639,-0.09571003913879395,-0.02022702805697918,10.296340942382812,0.5103201866149902,0.14848963916301727,0.597992479801178
1781547132951116,813059036,0.1459316462278366,-0.004841848276555538,-0.0003100927860941738,0.9892828464508057,-0.0923948884010315,-0.02926410362124443,10.323562622070312,0.47594156861305237,0.09149496257305145,0.5699018239974976
1781547132979117,813075703,0.14592845737934113,-0.004837363492697477,-0.00029954759520478547,0.9892833232879639,-0.10803007334470749,-0.032786667346954346,10.31731128692627,0.49477970600128174,0.12197406589984894,0.6164143085479736
1781547132982514,813092370,0.14592315256595612,-0.004837424959987402,-0.0002946082386188209,0.989284098148346,-0.09803456813097,-0.027858654037117958,10.324442863464355,0.45208340883255005,0.14727944135665894,0.6189885139465332
1781547133009188,813109037,0.14592671394348145,-0.00483847688883543,-0.0002917158999480307,0.989283561706543,-0.10913154482841492,-0.030683858320116997,10.316356658935547,0.43747130036354065,0.1520177572965622,0.5584144592285156
1781547133011537,813125704,0.14593608677387238,-0.004826673306524754,-0.0002828269498422742,0.9892822504043579,-0.09284155815839767,-0.02309509366750717,10.314111709594727,0.4914628565311432,0.07064622640609741,0.5169603228569031
1781547133039128,813142371,0.14595140516757965,-0.0048285252414643764,-0.0002870355383493006,0.9892799854278564,-0.08661574125289917,-0.03984609991312027,10.336222648620605,0.38869190216064453,0.15041697025299072,0.4831899404525757
1781547133041713,813159038,0.14595244824886322,-0.004826718475669622,-0.00028498744359239936,0.9892798066139221,-0.0987136960029602,-0.018049007281661034,10.320723533630371,0.43458986282348633,0.13171972334384918,0.574845016002655
1781547133069295,813175705,0.1459481418132782,-0.004822301212698221,-0.0002833794569596648,0.9892804622650146,-0.09812436252832413,-0.025734495371580124,10.31305980682373,0.4339239299297333,0.11352188140153885,0.6152105927467346
1781547133099142,813192372,0.14595624804496765,-0.00481439707800746,-0.0002794989268295467,0.9892793297767639,-0.10708987712860107,-0.01843542419373989,10.31416130065918,0.4533383250236511,0.09213528037071228,0.5339287519454956
1781547133101426,813209039,0.14595837891101837,-0.004812389612197876,-0.0002756928151939064,0.9892789721488953,-0.09290950000286102,-0.03216787055134773,10.325695037841797,0.44656381011009216,0.13216790556907654,0.5779056549072266
1781547133129948,813225706,0.14595696330070496,-0.004814009182155132,-0.0002721667115110904,0.9892792701721191,-0.10325583070516586,-0.030401337891817093,10.287653923034668,0.44094181060791016,0.15649999678134918,0.6028268337249756
1781547133130943,813242373,0.14595770835876465,-0.004815053194761276,-0.00027683775988407433,0.9892792105674744,-0.10074891149997711,-0.027887264266610146,10.296243667602539,0.38593849539756775,0.1443851739168167,0.5838863253593445
1781547133161208,813259040,0.1459527313709259,-0.004820378962904215,-0.00026987039018422365,0.9892797470092773,-0.1058664619922638,-0.027608320116996765,10.311654090881348,0.4605483412742615,0.18516060709953308,0.6280169486999512
1781547133161742,813275707,0.1459532529115677,-0.004817415028810501,-0.00026927387807518244,0.9892797470092773,-0.09808821231126785,-0.03552604466676712,10.326852798461914,0.4258175492286682,0.12243510782718658,0.5806334614753723
1781547133189091,813292374,0.14596113562583923,-0.004816397093236446,-0.0002606589696370065,0.9892786145210266,-0.0896841287612915,-0.02766553871333599,10.3165283203125,0.4785284996032715,0.14370645582675934,0.5396659970283508
1781547133191339,813309041,0.1459636241197586,-0.004820484202355146,-0.0002568794006947428,0.989278256893158,-0.12353257089853287,-0.022526387125253677,10.313453674316406,0.4404551684856415,0.17360927164554596,0.5748322010040283
1781547133219140,813325708,0.14596587419509888,-0.004816038068383932,-0.00025627625291235745,0.9892778396606445,-0.10309848189353943,-0.039831798523664474,10.328412055969238,0.42744386196136475,0.11235649138689041,0.5592980980873108
1781547133249031,813342375,0.1459641456604004,-0.00480517977848649,-0.0002528229379095137,0.989278256893158,-0.08902610093355179,-0.026742877438664436,10.317995071411133,0.45308220386505127,0.07156828045845032,0.5994972586631775
1781547133250991,813359042,0.14596116542816162,-0.004798888694494963,-0.00024816239601932466,0.9892786145210266,-0.09708370268344879,-0.02835584618151188,10.325937271118164,0.4565783441066742,0.10382747650146484,0.6157229542732239
1781547133279093,813375709,0.14597725868225098,-0.004795279819518328,-0.00024207202659454197,0.9892762303352356,-0.09720847010612488,-0.01633969135582447,10.326313018798828,0.4643518626689911,0.12365172058343887,0.47918158769607544
1781547133281156,813392376,0.1459757387638092,-0.0047881826758384705,-0.00023163275909610093,0.9892765879631042,-0.09167607128620148,-0.029189003631472588,10.32110595703125,0.49672621488571167,0.1041860431432724,0.6043636202812195
1781547133309148,813409043,0.14598070085048676,-0.004791156854480505,-0.00022632835316471756,0.9892758727073669,-0.09992280602455139,-0.017920374870300293,10.312422752380371,0.45204493403434753,0.16760309040546417,0.549078643321991
1781547133311241,813425710,0.14597751200199127,-0.004790360573679209,-0.00021471394575200975,0.9892763495445251,-0.10535506904125214,-0.021389296278357506,10.31299877166748,0.498403936624527,0.14817588031291962,0.6143909692764282
1781547133339141,813442377,0.14598238468170166,-0.004801229573786259,-0.00020666440832428634,0.9892755746841431,-0.11127011477947235,-0.03853005915880203,10.314143180847168,0.4626998007297516,0.2240406721830368,0.5540602803230286
1781547133341829,813459044,0.14599034190177917,-0.004794585518538952,-0.0002083763829432428,0.9892744421958923,-0.10185070335865021,-0.03688866272568703,10.30860710144043,0.4140356779098511,0.0951063483953476,0.5356319546699524
1781547133369193,813475711,0.14598481357097626,-0.004788180813193321,-0.00019829544180538505,0.9892752766609192,-0.10050215572118759,-0.022047318518161774,10.324463844299316,0.4934990406036377,0.10848898440599442,0.6380187273025513
1781547133398923,813492378,0.145981103181839,-0.004791841376572847,-0.00018872800865210593,0.9892758131027222,-0.10000506043434143,-0.024586424231529236,10.315909385681152,0.47997555136680603,0.1764138787984848,0.6160942912101746
1781547133401145,813509045,0.1459893435239792,-0.004783484153449535,-0.00018262193771079183,0.9892746210098267,-0.11076229065656662,-0.03672049567103386,10.297534942626953,0.46888530254364014,0.09131567180156708,0.5380011200904846
1781547133428988,813525712,0.1459897756576538,-0.004781464580446482,-0.00017334011499769986,0.9892745614051819,-0.1129223182797432,-0.019654834643006325,10.309283256530762,0.4838430881500244,0.13755939900875092,0.5844881534576416
1781547133430620,813542379,0.14599914848804474,-0.004774708766490221,-0.00016453269927296788,0.989273190498352,-0.10082080960273743,-0.023284772410988808,10.312676429748535,0.4855975806713104,0.10485199093818665,0.5311112999916077
1781547133459748,813559046,0.14599843323230743,-0.004766627214848995,-0.00015542423352599144,0.9892733693122864,-0.10148162394762039,-0.03631272539496422,10.316374778747559,0.4888119399547577,0.09610524773597717,0.5929787755012512
1781547133461149,813575713,0.14599449932575226,-0.004760475363582373,-0.00015324943524319679,0.9892739653587341,-0.1003662571310997,-0.0293356291949749,10.299555778503418,0.4395715296268463,0.10226510465145111,0.6159021854400635
1781547133489416,813592380,0.14599059522151947,-0.0047597698867321014,-0.00014822417870163918,0.9892745614051819,-0.10807256400585175,-0.02937483601272106,10.31285572052002,0.4533255398273468,0.14218248426914215,0.627274215221405
1781547133490907,813609047,0.14599208533763885,-0.0047712805680930614,-0.00014039964298717678,0.989274263381958,-0.0977051854133606,-0.034438684582710266,10.332778930664062,0.4605483412742615,0.22810028493404388,0.5773166418075562
1781547133519093,813625714,0.1459921896457672,-0.0047819227911531925,-0.00013769909855909646,0.9892742037773132,-0.1094784364104271,-0.026174260303378105,10.308488845825195,0.4264194071292877,0.21706120669841766,0.5914548635482788
1781547133549693,813642381,0.14599932730197906,-0.004775365348905325,-0.0001328408980043605,0.9892731308937073,-0.1077868863940239,-0.030551539734005928,10.314897537231445,0.45870426297187805,0.10227791219949722,0.5354655385017395
1781547133551609,813659048,0.14598943293094635,-0.00476958230137825,-0.00013350277731660753,0.9892746210098267,-0.1055736243724823,-0.02590256743133068,10.322514533996582,0.41972169280052185,0.10188091546297073,0.6634393334388733
1781547133579060,813675715,0.14599059522151947,-0.004766735713928938,-0.0001265034225070849,0.9892745614051819,-0.10145381838083267,-0.026170801371335983,10.306154251098633,0.4692566394805908,0.1295810490846634,0.5882148146629333
1781547133581476,813692382,0.14598344266414642,-0.004767223726958036,-0.000127618812257424,0.9892755746841431,-0.10994372516870499,-0.028252173215150833,10.312819480895996,0.4103794991970062,0.14410986006259918,0.6451967358589172
1781547133609116,813709049,0.14598610997200012,-0.004768707323819399,-0.00012919634173158556,0.9892751574516296,-0.10406047850847244,-0.0393633134663105,10.329388618469238,0.4066207706928253,0.15046820044517517,0.5688515901565552
1781547133610373,813725716,0.14598654210567474,-0.004772664047777653,-0.00013003085041418672,0.9892750978469849,-0.10289855301380157,-0.030712615698575974,10.296562194824219,0.40911802649497986,0.1680385023355484,0.5869213342666626
1781547133639086,813742383,0.14598257839679718,-0.004769792780280113,-0.00012199050252093002,0.9892756938934326,-0.10020532459020615,-0.01743401028215885,10.316335678100586,0.4762682020664215,0.13043266534805298,0.6137570738792419
1781547133640551,813759050,0.14597776532173157,-0.004763762466609478,-0.00011203322355868295,0.9892764091491699,-0.0979880765080452,-0.03650592267513275,10.30919361114502,0.4923208951950073,0.11083254963159561,0.6296945810317993
1781547133669139,813775717,0.14596976339817047,-0.004770411644130945,-0.00011888975859619677,0.9892776012420654,-0.0982026532292366,-0.021428633481264114,10.307394981384277,0.3651922643184662,0.18025577068328857,0.6488271951675415
1781547133698936,813792384,0.14596280455589294,-0.004771927837282419,-0.00012099010200472549,0.9892786145210266,-0.11746448278427124,-0.04746713861823082,10.302742004394531,0.40270209312438965,0.1500968039035797,0.6420911550521851
1781547133701483,813809051,0.1459541916847229,-0.004769013728946447,-0.00011466641444712877,0.9892799258232117,-0.09659693390130997,-0.010657098144292831,10.305825233459473,0.4645054340362549,0.12842847406864166,0.6432052850723267
1781547133729399,813825718,0.1459534913301468,-0.004762149415910244,-0.0001138700099545531,0.989280104637146,-0.10050968080759048,-0.04654085636138916,10.346250534057617,0.4310168921947479,0.09600280225276947,0.5950661897659302
1781547133731025,813842385,0.14595818519592285,-0.004764173179864883,-0.00011328304390190169,0.9892792701721191,-0.09627149999141693,-0.03034769557416439,10.313746452331543,0.4207846224308014,0.15633349120616913,0.5668922662734985
1781547133758940,813859052,0.145961195230484,-0.00476833013817668,-0.0001198273675981909,0.9892789125442505,-0.10679598152637482,-0.019043168053030968,10.328229904174805,0.370225191116333,0.16378679871559143,0.5691717863082886
1781547133761139,813875719,0.14595574140548706,-0.0047574518248438835,-0.0001175046490970999,0.9892797470092773,-0.10305556654930115,-0.020566768944263458,10.312651634216309,0.4454752802848816,0.07030045986175537,0.6172980666160583
1781547133790013,813892386,0.14594972133636475,-0.004767184145748615,-0.00012141874321969226,0.9892805218696594,-0.10487943142652512,-0.024049993604421616,10.314149856567383,0.3821094334125519,0.20419083535671234,0.6285420060157776
1781547133791648,813909053,0.14596056938171387,-0.004771033301949501,-0.0001172685224446468,0.9892789125442505,-0.09561347961425781,-0.01803123764693737,10.314396858215332,0.44356709718704224,0.17237988114356995,0.5069073438644409
1781547133819308,813925720,0.1459633857011795,-0.0047680689021945,-0.0001189482572954148,0.9892784953117371,-0.10809411108493805,-0.03191039711236954,10.314375877380371,0.41046270728111267,0.12014276534318924,0.5660341382026672
1781547133849140,813942387,0.14597000181674957,-0.004767806269228458,-0.00011295903095742688,0.9892774820327759,-0.096854068338871,-0.025401685386896133,10.325222969055176,0.46010011434555054,0.14624209702014923,0.5381932258605957
1781547133850496,813959054,0.14597046375274658,-0.004763727076351643,-0.0001027868056553416,0.9892775416374207,-0.08926213532686234,-0.025094246491789818,10.302803039550781,0.49212878942489624,0.12443289160728455,0.5845394134521484
1781547133879104,813975721,0.14596988260746002,-0.004757511895149946,-9.91642737062648e-05,0.9892776608467102,-0.0992007926106453,-0.025423351675271988,10.332756996154785,0.4496629536151886,0.1033792570233345,0.5869341492652893
1781547133880895,813992388,0.14597031474113464,-0.004761040210723877,-9.826812311075628e-05,0.9892776012420654,-0.11454591900110245,-0.02482960745692253,10.335278511047363,0.4213224947452545,0.1668219119310379,0.5929148197174072
1781547133909133,814009055,0.1459749937057495,-0.0047586094588041306,-9.575225703883916e-05,0.9892768859863281,-0.10859834402799606,-0.031062833964824677,10.334345817565918,0.4385214149951935,0.12799304723739624,0.5491426587104797
1781547133910872,814025722,0.14596326649188995,-0.00474940612912178,-8.229320519603789e-05,0.9892786741256714,-0.10010987520217896,-0.022677814587950706,10.312788963317871,0.5192014575004578,0.09280122071504593,0.6732234954833984
1781547133939041,814042389,0.14596600830554962,-0.004742090590298176,-6.272956670727581e-05,0.989278256893158,-0.09636090695858002,-0.0247258972376585,10.33044719696045,0.5593493580818176,0.11199793219566345,0.5635882019996643
1781547133940516,814059056,0.14596085250377655,-0.004745216108858585,-5.686665463144891e-05,0.98927903175354,-0.09421518445014954,-0.016675854101777077,10.3193359375,0.4553106129169464,0.1690758317708969,0.6321533918380737
1781547133969158,814075723,0.14595358073711395,-0.004737876355648041,-5.123471419210546e-05,0.9892801642417908,-0.09196217358112335,-0.02085644006729126,10.321198463439941,0.46430057287216187,0.09760358929634094,0.634023129940033
1781547133998923,814092390,0.14596371352672577,-0.0047323512844741344,-6.13694719504565e-05,0.9892787337303162,-0.10698993504047394,-0.01799919269979,10.328680038452148,0.355754017829895,0.09432516992092133,0.5237732529640198
1781547134000587,814109057,0.14596514403820038,-0.004716609604656696,-5.3128729632589966e-05,0.9892785549163818,-0.11426738649606705,-0.02156457118690014,10.327839851379395,0.49072006344795227,0.04307415708899498,0.5799162983894348
1781547134028918,814125724,0.14596262574195862,-0.004711194895207882,-5.0289159844396636e-05,0.9892789125442505,-0.09754105657339096,-0.016332538798451424,10.30074691772461,0.4434646964073181,0.10793832689523697,0.6026732325553894
1781547134031098,814142391,0.14597174525260925,-0.004713875241577625,-5.019184391130693e-05,0.9892775416374207,-0.10231497883796692,-0.025555454194545746,10.31912899017334,0.41703876852989197,0.16036111116409302,0.5301060080528259
1781547134058955,814159058,0.14596299827098846,-0.004709557630121708,-4.6812281652819365e-05,0.9892788529396057,-0.11101663112640381,-0.012445311062037945,10.314554214477539,0.44580820202827454,0.11605753749608994,0.6574971675872803
1781547134061097,814175725,0.14595748484134674,-0.004706952720880508,-4.860271656070836e-05,0.9892796277999878,-0.1041673868894577,-0.03232879936695099,10.294037818908691,0.40905407071113586,0.12242230772972107,0.625775933265686
1781547134088964,814192392,0.14595118165016174,-0.004709448665380478,-4.38094612036366e-05,0.989280641078949,-0.11197062581777573,-0.027050280943512917,10.304834365844727,0.4487152695655823,0.16369715332984924,0.631141722202301
1781547134090506,814209059,0.14595060050487518,-0.004704345017671585,-3.2747841032687575e-05,0.9892807006835938,-0.09927193820476532,-0.018921712413430214,10.319750785827637,0.49924904108047485,0.1183626726269722,0.5864347815513611
1781547134119111,814225726,0.1459491103887558,-0.004704530816525221,-2.9261222152854316e-05,0.9892809391021729,-0.0968007817864418,-0.017612820491194725,10.330007553100586,0.44227373600006104,0.14670312404632568,0.5997149348258972
1781547134148991,814242393,0.14595536887645721,-0.004693352151662111,-2.940286140074022e-05,0.989280104637146,-0.1074221134185791,-0.0472416989505291,10.323037147521973,0.4292624294757843,0.06579262018203735,0.5455952882766724
1781547134152426,814259060,0.1459454596042633,-0.004687939304858446,-2.2373631509253755e-05,0.9892815947532654,-0.10161077976226807,-0.016976255923509598,10.322579383850098,0.47174111008644104,0.112151600420475,0.6551280617713928
1781547134178903,814275727,0.1459473818540573,-0.00468753557652235,-1.5887075278442353e-05,0.9892812967300415,-0.09792371094226837,-0.018460381776094437,10.317794799804688,0.4633273780345917,0.14571703970432281,0.5805054903030396
1781547134181370,814292394,0.1459512710571289,-0.004692805465310812,-1.3315397154656239e-05,0.9892807006835938,-0.09738370031118393,-0.027332952246069908,10.326552391052246,0.4309656322002411,0.18034541606903076,0.5772910118103027
1781547134209126,814309061,0.14595499634742737,-0.004687706474214792,-1.4716533769387752e-05,0.9892801642417908,-0.10729694366455078,-0.024049993604421616,10.309847831726074,0.41453516483306885,0.10587649047374725,0.562602162361145
1781547134211237,814325728,0.14595670998096466,-0.004688959568738937,-1.433489887858741e-05,0.9892798662185669,-0.10512618720531464,-0.022419244050979614,10.30434799194336,0.42014431953430176,0.1509164273738861,0.5804798603057861
1781547134239005,814342395,0.14596357941627502,-0.004686891101300716,-1.3962991943117231e-05,0.9892788529396057,-0.10396425426006317,-0.038537319749593735,10.306275367736816,0.42349961400032043,0.12824919819831848,0.5458770990371704
1781547134241078,814359062,0.14596380293369293,-0.004694484639912844,5.304919795889873e-06,0.9892787933349609,-0.10557634383440018,-0.035701096057891846,10.304412841796875,0.542278528213501,0.21288633346557617,0.5873696208000183
1781547134269216,814375729,0.14594975113868713,-0.004702617879956961,7.264518899319228e-06,0.9892807602882385,-0.09765906631946564,-0.034860868006944656,10.290257453918457,0.4236276149749756,0.19910670816898346,0.6848899722099304
1781547134299147,814392396,0.145945206284523,-0.00469938525930047,9.26457596506225e-06,0.9892815351486206,-0.10270152240991592,-0.03312998265028,10.299251556396484,0.4355887472629547,0.12188443541526794,0.6105747222900391
1781547134300882,814409063,0.14594212174415588,-0.004697658121585846,1.503283237980213e-05,0.989281952381134,-0.09509135037660599,-0.015417030081152916,10.326033592224121,0.45972877740859985,0.13594581186771393,0.6035313010215759
1781547134329181,814425730,0.14594732224941254,-0.004693137481808662,1.958908796950709e-05,0.9892812967300415,-0.10187184065580368,-0.02474735490977764,10.335711479187012,0.45449092984199524,0.1157245934009552,0.5600408315658569
1781547134331273,814442397,0.14594215154647827,-0.004695238079875708,2.8572840164997615e-05,0.9892820715904236,-0.10127104073762894,-0.02270534075796604,10.306815147399902,0.4777408540248871,0.16521471738815308,0.6226702928543091
1781547134359133,814459064,0.14593856036663055,-0.004691609647125006,2.8230286261532456e-05,0.9892826080322266,-0.10665001720190048,-0.024797530844807625,10.306876182556152,0.4200803339481354,0.1168515607714653,0.607437252998352
1781547134361419,814475731,0.14594581723213196,-0.004688631743192673,2.3808115656720474e-05,0.9892815351486206,-0.10766172409057617,-0.026442477479577065,10.310906410217285,0.3918999433517456,0.1172037124633789,0.5445003509521484
1781547134389622,814492398,0.14594383537769318,-0.0046874829567968845,2.70775180979399e-05,0.9892818331718445,-0.09919007122516632,-0.016171734780073166,10.301025390625,0.4420303404331207,0.1373288929462433,0.6125724911689758
1781547134419379,814509065,0.14594879746437073,-0.004685917403548956,3.919980372302234e-05,0.9892810583114624,-0.09675786644220352,-0.0271791759878397,10.30009937286377,0.5030398368835449,0.14339910447597504,0.5529462099075317
1781547134420868,814525732,0.14594627916812897,-0.004682904575020075,4.85195814690087e-05,0.989281415939331,-0.110733263194561,-0.027146873995661736,10.327465057373047,0.4851492941379547,0.13075922429561615,0.610164999961853
1781547134449024,814542399,0.14594005048274994,-0.004680959042161703,5.328305996954441e-05,0.9892823100090027,-0.1062169298529625,-0.01612154208123684,10.327367782592773,0.4529542028903961,0.13338452577590942,0.634215235710144
1781547134450891,814559066,0.1459471732378006,-0.004679539706557989,5.229388625593856e-05,0.9892813563346863,-0.08829981833696365,-0.021331975236535072,10.321914672851562,0.4138436019420624,0.13125869631767273,0.5347099304199219
1781547134478944,814575733,0.14594274759292603,-0.004680044483393431,5.22610243933741e-05,0.9892820119857788,-0.1144314780831337,-0.01455516368150711,10.331555366516113,0.4178519546985626,0.14511515200138092,0.6193214058876038
1781547134481443,814592400,0.14594657719135284,-0.004672348964959383,5.395803236751817e-05,0.9892814755439758,-0.10012665390968323,-0.013807736337184906,10.316052436828613,0.4382396638393402,0.09122602641582489,0.5642157196998596
1781547134509108,814609067,0.1459551602602005,-0.0046701678074896336,5.149713979335502e-05,0.9892802238464355,-0.09946504980325699,-0.028781317174434662,10.308296203613281,0.4046421945095062,0.1246313825249672,0.5259566903114319
1781547134511377,814625734,0.14595815539360046,-0.004675639793276787,4.701840953202918e-05,0.9892797470092773,-0.10848424583673477,-0.01568882167339325,10.3092041015625,0.3830186426639557,0.17458254098892212,0.5694278478622437
1781547134539295,814642401,0.14595797657966614,-0.0046775247901678085,6.111850962042809e-05,0.9892798066139221,-0.10641004890203476,-0.027908721938729286,10.30390453338623,0.5127917528152466,0.16892853379249573,0.5964300632476807
1781547134569162,814659068,0.1459643691778183,-0.004678895231336355,7.389064558083192e-05,0.9892789125442505,-0.10213647782802582,-0.025977570563554764,10.31796646118164,0.5044612884521484,0.164055734872818,0.5480925440788269
1781547134571472,814675735,0.14596198499202728,-0.004664970561861992,7.64663636800833e-05,0.9892792105674744,-0.10658170282840729,-0.029879212379455566,10.325203895568848,0.45035451650619507,0.049771878868341446,0.5969871878623962
1781547134598948,814692402,0.14596441388130188,-0.004659478086978197,6.984787614783272e-05,0.9892789125442505,-0.09957233816385269,-0.027093347162008286,10.324914932250977,0.3794073164463043,0.09784691780805588,0.5720531940460205
1781547134601245,814709069,0.14596396684646606,-0.004656612407416105,7.434212602674961e-05,0.9892789721488953,-0.10012985020875931,-0.01274907123297453,10.309881210327148,0.4523523449897766,0.12687891721725464,0.5918518900871277
1781547134628979,814725736,0.14595848321914673,-0.0046621630899608135,7.655297667952254e-05,0.9892798066139221,-0.09013870358467102,-0.029021088033914566,10.298893928527832,0.4280202090740204,0.1818181425333023,0.6379674077033997
1781547134631189,814742403,0.14594821631908417,-0.004666020628064871,8.330032142112032e-05,0.9892812967300415,-0.10742568969726562,-0.037192557007074356,10.315741539001465,0.46052274107933044,0.17481306195259094,0.6679086685180664
1781547134658965,814759070,0.14595142006874084,-0.004671280272305012,7.425461080856621e-05,0.9892808198928833,-0.10286273807287216,-0.02626023441553116,10.305245399475098,0.35220664739608765,0.16858920454978943,0.5673917531967163
1781547134661276,814775737,0.1459474116563797,-0.004657605662941933,8.135328971548006e-05,0.9892814755439758,-0.10931750386953354,-0.015706703066825867,10.315935134887695,0.4806927740573883,0.05590612441301346,0.6205509305000305
1781547134688984,814792404,0.14594639837741852,-0.004659061785787344,8.900957618607208e-05,0.9892816543579102,-0.1004878506064415,-0.024536358192563057,10.315898895263672,0.4694231152534485,0.15944546461105347,0.5981781482696533
1781547134691227,814809071,0.14595927298069,-0.00465000094845891,8.861718379193917e-05,0.9892796874046326,-0.10706091672182083,-0.02840939164161682,10.31494426727295,0.4256894290447235,0.07990521937608719,0.5098527669906616
1781547134719138,814825738,0.14595326781272888,-0.0046454137191176414,8.356461330549791e-05,0.9892805218696594,-0.1044037938117981,-0.022769711911678314,10.301301002502441,0.38892239332199097,0.10553070902824402,0.6287468671798706
1781547134749772,814842405,0.14595873653888702,-0.004637696780264378,8.636560960439965e-05,0.9892799258232117,-0.10855934768915176,-0.024286024272441864,10.316381454467773,0.4458466172218323,0.09221211820840836,0.5456080436706543
1781547134750802,814859072,0.14596779644489288,-0.004622411914169788,9.200023487210274e-05,0.9892785549163818,-0.10636355727910995,-0.03313355892896652,10.32562255859375,0.4728167653083801,0.04356079548597336,0.5208150148391724
1781547134779504,814875739,0.145966038107872,-0.004610608331859112,8.20014247437939e-05,0.9892788529396057,-0.10804794728755951,-0.013539521023631096,10.30777359008789,0.36268219351768494,0.051526349037885666,0.6027756333351135
1781547134781721,814892406,0.14597217738628387,-0.004611707292497158,8.357186743523926e-05,0.9892779588699341,-0.11152759939432144,-0.02668565884232521,10.311357498168945,0.42866051197052,0.1509036123752594,0.5458898544311523
1781547134810560,814909073,0.14597728848457336,-0.004608847666531801,7.790353265590966e-05,0.989277184009552,-0.12107250094413757,-0.015495706349611282,10.320662498474121,0.3833644390106201,0.1167362704873085,0.5554946064949036
1781547134811240,814925740,0.1459711790084839,-0.004619441460818052,8.11981299193576e-05,0.9892781376838684,-0.09775960445404053,-0.027190104126930237,10.309772491455078,0.4304662346839905,0.21715083718299866,0.6379930377006531
1781547134839722,814942407,0.1459764540195465,-0.004623269196599722,9.161078196484596e-05,0.9892773628234863,-0.10165369510650635,-0.030880549922585487,10.304719924926758,0.4859689176082611,0.1783476173877716,0.5536889433860779
