host_t_us,sensor_t_us,qw,qx,qy,qz,ax,ay,az,gx,gy,gz
1781547126243854,805917206,-0.14512944221496582,-0.7101284861564636,0.3788997232913971,-0.5754072666168213,9.075898170471191,-0.5405598282814026,-3.5594747066497803,0.8532806634902954,0.26140958070755005,-0.6160878539085388
1781547126274486,805950540,-0.14540357887744904,-0.7100346684455872,0.3786512315273285,-0.5756173729896545,9.070924758911133,-0.5573939681053162,-3.568312883377075,1.1928155422210693,0.16409415006637573,-0.1657654047012329
1781547126303917,805983874,-0.1455574631690979,-0.7098809480667114,0.37852799892425537,-0.575849175453186,9.09730052947998,-0.5524158477783203,-3.567467212677002,1.0530469417572021,0.2115032821893692,0.5312650203704834
1781547126333862,806050542,-0.14609119296073914,-0.7095534801483154,0.37815406918525696,-0.5763628482818604,9.19385051727295,-0.5103539824485779,-3.5773050785064697,1.4441401958465576,0.09355679154396057,-0.33146676421165466
1781547126363847,806100543,-0.14622050523757935,-0.7095268368721008,0.37785008549690247,-0.5765622854232788,9.132287979125977,-0.5223428010940552,-3.605576276779175,1.527086615562439,-0.9228894114494324,0.6223821043968201
1781547126393931,806133877,-0.14640915393829346,-0.7095252275466919,0.37764883041381836,-0.5766482949256897,9.172472953796387,-0.6242704391479492,-3.6764321327209473,0.8286796808242798,-0.16169297695159912,-0.6558900475502014
1781547126454126,806167211,-0.1470831334590912,-0.7094718217849731,0.3774525821208954,-0.5766708850860596,9.143026351928711,-0.5566129684448242,-3.5774972438812256,-0.2877586781978607,0.15619264543056488,-1.0773853063583374
1781547126484932,806200545,-0.14759115874767303,-0.7094931602478027,0.37720245122909546,-0.576678454875946,9.124083518981934,-0.5130701065063477,-3.5341665744781494,0.6135714054107666,-0.18902172148227692,-0.9402549266815186
1781547126513836,806217212,-0.14784687757492065,-0.7094778418540955,0.3770057260990143,-0.5767605900764465,9.111191749572754,-0.4975842833518982,-3.557029962539673,0.7943459153175354,0.3969264030456543,-1.1857142448425293
1781547126544622,806250546,-0.14847888052463531,-0.7093251943588257,0.37637752294540405,-0.5771961212158203,9.107465744018555,-0.5173642039299011,-3.5384745597839355,1.6324446201324463,1.8378968238830566,-2.0118134021759033
1781547126574612,806283880,-0.14878235757350922,-0.7092165350914001,0.37616968154907227,-0.5773868560791016,9.134305953979492,-0.5552562475204468,-3.5305068492889404,0.7450413703918457,-0.1790967881679535,0.27253830432891846
1781547126604717,806350548,-0.14966699481010437,-0.7091891169548035,0.37519583106040955,-0.5778254270553589,9.089741706848145,-0.46378248929977417,-3.5520691871643066,1.6369781494140625,0.6980805397033691,-1.7762024402618408
1781547126634449,806367215,-0.1499214768409729,-0.7091593146324158,0.37479367852211,-0.5780569314956665,9.060246467590332,-0.4053060710430145,-3.5230908393859863,1.8532646894454956,1.4640796184539795,-1.928572416305542
1781547126694421,806400549,-0.15004150569438934,-0.7090160846710205,0.3745025396347046,-0.5783899426460266,9.098411560058594,-0.4615533947944641,-3.5578229427337646,1.5155737400054932,-0.12447770684957504,1.0827445983886719
1781547126724486,806433883,-0.15008877217769623,-0.7088724374771118,0.3745109736919403,-0.5785483717918396,9.211275100708008,-0.6185913681983948,-3.6202914714813232,1.0760855674743652,0.18403364717960358,0.2699130177497864
1781547126754435,806467217,-0.1505190134048462,-0.7088723182678223,0.37414443492889404,-0.5786738395690918,9.228856086730957,-0.56461501121521,-3.5780320167541504,0.713448166847229,0.11512269079685211,-1.269608736038208
1781547126784473,806500551,-0.1510799080133438,-0.7089767456054688,0.3735983967781067,-0.5787526369094849,9.10538387298584,-0.4526536762714386,-3.5879034996032715,0.9626724720001221,0.05294784903526306,-1.5580077171325684
1781547126814416,806517218,-0.1512291431427002,-0.7089910507202148,0.3735061287879944,-0.5787555575370789,9.06769847869873,-0.4676284193992615,-3.5941455364227295,0.7807454466819763,-0.4137731194496155,-0.39031192660331726
1781547126844616,806583886,-0.15197138488292694,-0.7089266180992126,0.37317028641700745,-0.5788565874099731,9.180843353271484,-0.5517718195915222,-3.5779330730438232,0.2433270663022995,0.49805814027786255,-1.2808399200439453
1781547126876138,806617220,-0.15256857872009277,-0.7089523077011108,0.3729100823402405,-0.5788359045982361,9.159551620483398,-0.5052958726882935,-3.5385899543762207,0.02613135613501072,-0.16321691870689392,-1.1665431261062622
1781547126934883,806650554,-0.15327879786491394,-0.7089593410491943,0.3723333477973938,-0.5790110230445862,9.110102653503418,-0.454325407743454,-3.5173161029815674,1.0203651189804077,1.235460638999939,-2.248602867126465
1781547126964445,806667221,-0.1535438597202301,-0.7089455723762512,0.37204086780548096,-0.5791454911231995,9.137566566467285,-0.474529504776001,-3.4817771911621094,1.3619232177734375,0.8728616237640381,-1.6148935556411743
1781547126994403,806700555,-0.15394240617752075,-0.7089154124259949,0.37183183431625366,-0.5792106986045837,9.171224594116211,-0.5216745138168335,-3.536726236343384,1.1050021648406982,-0.18973886966705322,-0.5718547105789185
1781547127024449,806733889,-0.15430131554603577,-0.7089717388153076,0.3714691400527954,-0.5792791843414307,9.168201446533203,-0.5185264945030212,-3.5652122497558594,1.1035935878753662,0.1354207545518875,-1.1618561744689941
1781547127054575,806767223,-0.15483760833740234,-0.7090401649475098,0.3705655634403229,-0.5796307325363159,9.109917640686035,-0.44314470887184143,-3.566253423690796,1.4810993671417236,1.8850374221801758,-2.6687793731689453
1781547127084631,806817224,-0.1557367444038391,-0.7086735367774963,0.36958110332489014,-0.5804662704467773,9.229005813598633,-0.4432731866836548,-3.4824376106262207,0.811339795589447,0.15847216546535492,0.3615552484989166
1781547127115067,806850558,-0.1559228152036667,-0.7087868452072144,0.36939525604248047,-0.5803963541984558,9.33907699584961,-0.48726320266723633,-3.3614397048950195,1.7792439460754395,-0.7063470482826233,-1.3490722179412842
1781547127174417,806883892,-0.1565553843975067,-0.7092262506484985,0.36775481700897217,-0.5807309150695801,9.465141296386719,-0.2904587984085083,-3.2076168060302734,3.4100942611694336,1.1607483625411987,-5.740689754486084
1781547127204424,806917226,-0.1571407914161682,-0.710333526134491,0.3647460341453552,-0.5811169743537903,10.163361549377441,0.3906095623970032,-2.589278221130371,7.191595077514648,0.17804038524627686,-10.752203941345215
1781547127234438,806950560,-0.15942198038101196,-0.7134066820144653,0.3562738001346588,-0.5819863677024841,11.719168663024902,2.269303321838379,-0.4892446994781494,19.14413070678711,3.1373231410980225,-34.86531066894531
1781547127264496,806967227,-0.15909236669540405,-0.7171795964241028,0.34897637367248535,-0.5818607807159424,12.012731552124023,3.0668482780456543,0.4980381429195404,35.58371353149414,-9.219292640686035,-42.968162536621094
1781547127294811,807000561,-0.14385952055454254,-0.731368362903595,0.33686456084251404,-0.5752655863761902,10.744293212890625,2.964066505432129,0.15376991033554077,74.61170959472656,-73.80186462402344,-7.85519552230835
1781547127324484,807067229,-0.06743010878562927,-0.776203453540802,0.32019734382629395,-0.5389235019683838,8.03895378112793,-0.8996171355247498,-3.668736219406128,115.39275360107422,-173.5802001953125,42.220970153808594
1781547127354349,807100563,-0.007770241238176823,-0.8007631897926331,0.3210710883140564,-0.5056033730506897,5.176063537597656,-3.831233501434326,-6.865897178649902,130.06900024414062,-200.66514587402344,89.83916473388672
1781547127414510,807117230,0.01978984847664833,-0.8086614608764648,0.32098984718322754,-0.4925890266895294,3.5911171436309814,-6.806557655334473,-9.112078666687012,125.64970397949219,-160.42544555664062,77.71427154541016
1781547127444570,807150564,0.046396493911743164,-0.8164465427398682,0.30354005098342896,-0.4890085756778717,1.3870090246200562,-12.673319816589355,-14.38573932647705,85.93329620361328,-13.145307540893555,-48.38405227661133
1781547127474468,807183898,0.013048160821199417,-0.813312292098999,0.2757842242717743,-0.5121518969535828,1.4878596067428589,-12.737281799316406,-14.274940490722656,-61.993045806884766,132.58663940429688,-157.3242645263672
1781547127504503,807217232,-0.06677252054214478,-0.7974252104759216,0.24728254973888397,-0.5463600158691406,4.545823574066162,-7.868145942687988,-7.744280815124512,-157.34957885742188,215.2915802001953,-221.8119659423828
1781547127534435,807250566,-0.17200876772403717,-0.7715331315994263,0.20452940464019775,-0.5773393511772156,8.389514923095703,0.3082543909549713,0.16061224043369293,-189.81578063964844,237.5444793701172,-315.8320617675781
1781547127564461,807300567,-0.32611292600631714,-0.7281860113143921,0.05812409520149231,-0.6000171899795532,4.829658508300781,15.86108684539795,7.582512378692627,-10.042656898498535,207.6593017578125,-430.84765625
1781547127594810,807333901,-0.3295329213142395,-0.7344914078712463,0.028954612091183662,-0.5925331115722656,0.5621415972709656,19.058670043945312,6.0817461013793945,82.29784393310547,-65.79688262939453,40.08894729614258
1781547127654427,807367235,-0.2574891746044159,-0.7669779062271118,0.0581166036427021,-0.5848677158355713,1.6597795486450195,9.604058265686035,1.2231007814407349,178.24391174316406,-130.51754760742188,238.00367736816406
1781547127684404,807400569,-0.1617058664560318,-0.7953253984451294,0.10377456992864609,-0.574928879737854,3.8813843727111816,2.20733642578125,-2.8847477436065674,183.607421875,-148.1941375732422,325.556884765625
1781547127714377,807417236,-0.10787336528301239,-0.8047268986701965,0.13547882437705994,-0.5678266286849976,5.362913608551025,-2.015023708343506,-5.176438331604004,175.83375549316406,-149.4449462890625,372.717041015625
1781547127744466,807450570,-0.024434015154838562,-0.8058493137359619,0.17435266077518463,-0.565344512462616,9.445535659790039,-14.245540618896484,-11.943991661071777,142.81202697753906,-16.987831115722656,193.22801208496094
1781547127774620,807483904,-0.04083941876888275,-0.7914440631866455,0.1507492959499359,-0.5909539461135864,11.291571617126465,-15.493308067321777,-10.68907642364502,-28.145156860351562,135.51573181152344,-156.5421905517578
1781547127804603,807550572,-0.18334823846817017,-0.7628622651100159,0.10768172144889832,-0.6106002330780029,8.54551887512207,2.114720344543457,-1.380638837814331,-172.64138793945312,94.63443756103516,-237.33493041992188
1781547127834535,807567239,-0.2288639396429062,-0.7527718544006348,0.0822342112660408,-0.6117162704467773,7.579320430755615,5.647552013397217,1.0783718824386597,-143.6461639404297,114.29391479492188,-315.4468688964844
1781547127894534,807600573,-0.30819812417030334,-0.7280746102333069,-0.0016914848238229752,-0.6123085618019104,3.20929217338562,11.991328239440918,2.5412466526031494,-9.583504676818848,156.5167694091797,-376.1221618652344
1781547127925052,807633907,-0.32924139499664307,-0.7112041115760803,-0.06716129183769226,-0.6174802184104919,1.894680380821228,13.2838134765625,0.36667367815971375,74.84879302978516,81.08204650878906,-115.00685119628906
1781547127954850,807667241,-0.2899627685546875,-0.7283685803413391,-0.03340591862797737,-0.6199100613594055,2.4512298107147217,8.170062065124512,-3.009364604949951,32.89045333862305,-89.60819244384766,254.95188903808594
1781547127984896,807700575,-0.22699302434921265,-0.7417596578598022,0.04417750984430313,-0.6295382976531982,6.792677402496338,0.560674786567688,-4.286630630493164,-1.5277540683746338,-57.786312103271484,345.4957580566406
1781547128014391,807717242,-0.20325613021850586,-0.7392295002937317,0.07115531712770462,-0.6380964517593384,9.82828426361084,-3.0766685009002686,-4.535456657409668,3.2633278369903564,5.623223304748535,255.39317321777344
1781547128044995,807783910,-0.2295532375574112,-0.7040867805480957,0.08395857363939285,-0.6667245626449585,10.391868591308594,0.28400349617004395,-2.1559953689575195,-87.18132781982422,71.47444915771484,-48.62571716308594
1781547128074689,807817244,-0.24739623069763184,-0.6910468935966492,0.09351048618555069,-0.6726875305175781,9.341459274291992,4.485336780548096,0.8439927101135254,-65.21246337890625,31.56195640563965,5.226873874664307
1781547128134656,807850578,-0.24986395239830017,-0.6865481734275818,0.1092286929488182,-0.6740121245384216,8.915372848510742,5.97194242477417,1.128796100616455,-40.4947624206543,-4.014594078063965,40.57038879394531
1781547128164526,807867245,-0.2484753429889679,-0.68421471118927,0.11802428960800171,-0.675413966178894,10.607391357421875,6.85955286026001,2.959507942199707,-37.10446548461914,1.362122893333435,52.85824203491211
1781547128194496,807900579,-0.23566389083862305,-0.6872591376304626,0.11921712756156921,-0.6767040491104126,9.908597946166992,6.430959701538086,1.4508832693099976,41.905235290527344,-27.601104736328125,25.170452117919922
1781547128224540,807933913,-0.224257230758667,-0.6894655823707581,0.11876819282770157,-0.6784125566482544,7.535848140716553,4.023451328277588,-1.7435981035232544,28.408416748046875,-1.9860320091247559,26.234899520874023
1781547128254805,807967247,-0.21329811215400696,-0.6890839338302612,0.12027113884687424,-0.682059645652771,8.7399320602417,1.418237328529358,-1.9062905311584473,13.652488708496094,7.374113082885742,38.03472137451172
1781547128284576,808017248,-0.20697790384292603,-0.6831332445144653,0.13037213683128357,-0.6881102919578552,10.098668098449707,1.6229685544967651,-0.45444631576538086,-16.318532943725586,8.396753311157227,28.82094383239746
1781547128314493,808050582,-0.20050553977489471,-0.6792258024215698,0.14630694687366486,-0.6906862854957581,10.301006317138672,2.443081855773926,-0.36830711364746094,-15.24929428100586,-6.820993900299072,58.20289611816406
1781547128374858,808083916,-0.19236375391483307,-0.6776894927024841,0.15459127724170685,-0.6927035450935364,10.088107109069824,1.6699775457382202,-0.7820079922676086,3.868938446044922,-3.5476324558258057,36.74070358276367
1781547128404522,808117250,-0.18673239648342133,-0.6762720346450806,0.1591121256351471,-0.6946035623550415,9.414695739746094,1.1990700960159302,-1.9121016263961792,-1.0153414011001587,3.065124988555908,27.4398250579834
1781547128434519,808150584,-0.18286561965942383,-0.6714670658111572,0.16745181381702423,-0.6983233690261841,9.29798412322998,1.3630784749984741,-1.9653773307800293,-16.117586135864258,14.89795970916748,39.494972229003906
1781547128464522,808167251,-0.18003426492214203,-0.6680449843406677,0.1752374917268753,-0.700427770614624,9.434926986694336,1.2309144735336304,-1.228079080581665,-25.928531646728516,13.216119766235352,57.03297424316406
1781547128494392,808200585,-0.17147479951381683,-0.6579203009605408,0.19581344723701477,-0.7066807746887207,9.550419807434082,1.1242843866348267,-0.6101716160774231,-34.07948303222656,28.258264541625977,83.96661376953125
1781547128524420,808267253,-0.1299440711736679,-0.6388249397277832,0.22713470458984375,-0.7234849333763123,11.121628761291504,4.622649669647217,5.260128021240234,77.4646224975586,-2.007977247238159,62.12254333496094
1781547128554369,808300587,-0.09227834641933441,-0.644822895526886,0.22778476774692535,-0.72374427318573,10.962666511535645,2.5040595531463623,4.147121906280518,85.4173812866211,-60.026893615722656,94.2174301147461
1781547128614496,808317254,-0.07036761194467545,-0.6516583561897278,0.22755783796310425,-0.7201462984085083,11.021982192993164,0.8149397373199463,2.14817214012146,97.53968048095703,-84.0658187866211,96.2784652709961
1781547128644539,808350588,-0.013145292177796364,-0.667731523513794,0.2191409021615982,-0.7112963199615479,9.733349800109863,-1.8800437450408936,-0.13046063482761383,166.3820343017578,-103.3763427734375,110.97174835205078
1781547128675267,808383922,0.047326959669589996,-0.6855913400650024,0.1995692253112793,-0.6984986662864685,8.910321235656738,-5.963818550109863,-2.722717761993408,171.6206512451172,-127.13898468017578,71.33904266357422
1781547128704842,808417256,0.1027606725692749,-0.696032702922821,0.16945181787014008,-0.6901219487190247,7.17193603515625,-7.382056713104248,-5.253381252288818,229.5380401611328,-76.410888671875,51.874267578125
1781547128734807,808450590,0.1654030680656433,-0.694033145904541,0.11260291188955307,-0.6915807723999023,7.0540642738342285,-9.296636581420898,-3.1780524253845215,286.0652770996094,-39.64381408691406,7.301055431365967
1781547128764858,808500591,0.2196456342935562,-0.6820678114891052,0.05512292683124542,-0.6953446865081787,5.07575798034668,-12.499215126037598,-3.683035373687744,114.66360473632812,18.112947463989258,-13.297445297241211
1781547128794362,808533925,0.20252740383148193,-0.6654807329177856,0.057956255972385406,-0.7160744667053223,5.003540992736816,-14.856574058532715,-0.78629469871521,-98.08061981201172,115.5343017578125,-64.26197814941406
1781547128855239,808567259,0.11095167696475983,-0.6473758220672607,0.12483416497707367,-0.7436490654945374,7.115646839141846,-7.810977458953857,-1.7172226905822754,-426.5458679199219,208.76707458496094,-86.17908477783203
1781547128884410,808600593,0.019387222826480865,-0.5952768325805664,0.20120327174663544,-0.7776827216148376,8.466983795166016,0.507594108581543,4.789145469665527,-302.02532958984375,262.25830078125,-52.100929260253906
1781547128914773,808617260,-0.00569300539791584,-0.5771688222885132,0.2113441824913025,-0.7887845039367676,11.06177806854248,7.371999740600586,10.15087604522705,-138.82553100585938,178.8428497314453,-68.743896484375
1781547128944849,808650594,0.00221942737698555,-0.5656176209449768,0.20801877975463867,-0.7979996204376221,14.736908912658691,12.923157691955566,8.961141586303711,52.717079162597656,17.08507537841797,61.544376373291016
1781547128974984,808683928,0.03565431013703346,-0.5504050254821777,0.20053525269031525,-0.8096741437911987,11.760658264160156,5.527668476104736,5.168581008911133,106.69042205810547,41.67233657836914,95.35230255126953
1781547129004532,808750596,0.17306829988956451,-0.5168044567108154,0.16832488775253296,-0.8213591575622559,4.490298748016357,-8.15361499786377,0.33109205961227417,224.46566772460938,45.746421813964844,157.06654357910156
1781547129034523,808767263,0.1962304264307022,-0.5032804012298584,0.1388939917087555,-0.8300086259841919,3.986304759979248,-16.745277404785156,-0.38609105348587036,275.1282043457031,46.19078826904297,32.30036163330078
1781547129094541,808800597,0.1877812296152115,-0.47477373480796814,0.1083061546087265,-0.8529955148696899,6.422840118408203,-20.96917152404785,3.4085605144500732,12.902332305908203,131.4575958251953,-101.20520782470703
1781547129124563,808833931,0.11889056861400604,-0.43479663133621216,0.13651782274246216,-0.882146954536438,3.185962200164795,-15.250200271606445,1.7814786434173584,-179.30352783203125,224.23257446289062,-187.16317749023438
1781547129155035,808867265,0.02077038213610649,-0.39403751492500305,0.15793144702911377,-0.9051874279975891,4.867658615112305,-6.702622890472412,5.49646520614624,-196.85617065429688,188.65345764160156,-269.9123229980469
1781547129184892,808900599,-0.06493089348077774,-0.3724055588245392,0.19056375324726105,-0.9059728980064392,6.959208011627197,5.633439540863037,14.698737144470215,-211.39761352539062,99.22126770019531,-168.53343200683594
1781547129214843,808917266,-0.0862208753824234,-0.34983769059181213,0.20836085081100464,-0.9092683792114258,8.938211441040039,14.61207389831543,15.002138137817383,-171.56805419921875,169.4178466796875,-55.85704040527344
1781547129245673,808983934,-0.043230216950178146,-0.3041391372680664,0.18689179420471191,-0.9331160187721252,6.699539661407471,5.186300277709961,8.629827499389648,78.85533905029297,-17.26435089111328,138.86737060546875
1781547129274810,809017268,0.015209216624498367,-0.29861074686050415,0.20240391790866852,-0.9325429201126099,3.7371931076049805,-1.294716477394104,3.1323325634002686,-2.5193979740142822,-16.691804885864258,221.99024963378906
1781547129334791,809050602,0.05819552019238472,-0.29506856203079224,0.18889141082763672,-0.9348108768463135,3.5309901237487793,-14.914697647094727,4.352156639099121,137.49285888671875,-19.7183780670166,66.09456634521484
1781547129364452,809067269,0.06020662561058998,-0.2941124439239502,0.1722923070192337,-0.9381853938102722,6.250909328460693,-17.428979873657227,8.004486083984375,115.16921997070312,4.427221298217773,-20.15501594543457
1781547129394532,809100603,0.04420439153909683,-0.28710582852363586,0.17472994327545166,-0.9407917261123657,5.500474452972412,-10.96579647064209,5.209425449371338,-57.24612045288086,42.40513229370117,-54.52995300292969
1781547129424557,809133937,0.012801822274923325,-0.2840576469898224,0.1916830986738205,-0.9393659830093384,5.716247081756592,-3.3522329330444336,5.905360698699951,-90.53227233886719,21.549869537353516,-84.98973083496094
1781547129455356,809167271,-0.008804326876997948,-0.28358718752861023,0.15500296652317047,-0.9462971091270447,3.8498733043670654,-2.126385450363159,1.5877628326416016,246.37181091308594,28.625314712524414,-115.29564666748047
1781547129484925,809217272,-0.016590392217040062,-0.2690638303756714,0.12857817113399506,-0.9543586373329163,5.224696159362793,0.4798123836517334,6.708597660064697,-4.152526378631592,54.60666275024414,26.808338165283203
1781547129514399,809250606,-0.0006856545805931091,-0.2602529227733612,0.11587866395711899,-0.9585633277893066,6.768741130828857,1.3689132928848267,8.227167129516602,59.8848876953125,26.906299591064453,65.1760482788086
1781547129574811,809283940,0.020480819046497345,-0.25131985545158386,0.10638143122196198,-0.9618238806724548,5.62489128112793,-2.6065196990966797,8.211209297180176,50.2537841796875,28.535388946533203,50.36977005004883
1781547129604435,809317274,0.024497825652360916,-0.24285808205604553,0.08850917220115662,-0.9657066464424133,6.408383369445801,-2.8580946922302246,6.95096492767334,82.61866760253906,25.104907989501953,-14.470797538757324
1781547129634376,809350608,0.030954360961914062,-0.2263001799583435,0.05858501046895981,-0.9718031883239746,6.396841526031494,-1.4604471921920776,8.064661979675293,108.11237335205078,67.43301391601562,5.62948751449585
1781547129664469,809367275,0.03579459711909294,-0.21589206159114838,0.045306846499443054,-0.9747104048728943,5.81774377822876,-0.91776442527771,8.742266654968262,99.05838775634766,70.1968002319336,15.294960975646973
1781547129694520,809400609,0.04487846791744232,-0.19833606481552124,0.026063598692417145,-0.9787608981132507,5.218519687652588,-0.11983317136764526,9.84195327758789,61.56387710571289,50.8089599609375,17.347049713134766
1781547129724540,809467277,0.05979687348008156,-0.192722350358963,0.0036591796670109034,-0.9794245362281799,4.912510395050049,-0.2600328028202057,9.070775032043457,33.459251403808594,3.7802352905273438,15.98962688446045
1781547129754520,809500611,0.06029627472162247,-0.19308578968048096,-0.0003365110605955124,-0.9793291687965393,4.606765270233154,-0.11734966933727264,7.102741718292236,6.025817394256592,0.2983432114124298,-5.188518524169922
1781547129814528,809517278,0.06058058142662048,-0.19171461462974548,-0.0031562778167426586,-0.9795759916305542,5.243775844573975,-0.5578571557998657,7.577324867248535,19.36758041381836,9.383004188537598,-2.1519827842712402
1781547129845151,809550612,0.06469665467739105,-0.18596060574054718,-0.011920256540179253,-0.9803543090820312,4.608282089233398,-0.047300517559051514,8.314735412597656,32.80731201171875,18.988819122314453,4.283073425292969
1781547129874528,809583946,0.06575140357017517,-0.18010403215885162,-0.017902787774801254,-0.9812861084938049,5.468270301818848,0.5316400527954102,9.296449661254883,15.243254661560059,23.738971710205078,-1.6077390909194946
1781547129904470,809617280,0.06965848803520203,-0.16621550917625427,-0.014211922883987427,-0.9835250973701477,5.141102313995361,1.1909716129302979,9.704913139343262,-13.197530746459961,54.42802429199219,18.76742172241211
1781547129934310,809650614,0.07293078303337097,-0.15669327974319458,-0.01316571980714798,-0.9848645925521851,3.755086898803711,0.7812691926956177,8.952315330505371,7.881500720977783,23.67792510986328,5.57185697555542
1781547129964503,809700615,0.07682376354932785,-0.1561177521944046,-0.017784222960472107,-0.9845874905586243,4.609492778778076,1.2132996320724487,8.54684829711914,11.495880126953125,-1.6857142448425293,12.943344116210938
1781547129994853,809733949,0.08520650863647461,-0.16090451180934906,-0.020057067275047302,-0.9830822944641113,5.058335781097412,1.6874823570251465,8.98680591583252,7.42258358001709,-20.700864791870117,33.56127166748047
1781547130054522,809767283,0.0965898185968399,-0.16614513099193573,-0.02372717671096325,-0.981074333190918,4.246188640594482,0.2522194981575012,7.860410213470459,24.698087692260742,-16.602920532226562,36.23416519165039
1781547130085225,809800617,0.10851316899061203,-0.16787175834178925,-0.0282573401927948,-0.9794125556945801,5.133464813232422,1.1604454517364502,9.225873947143555,14.46445369720459,-3.9552934169769287,41.33150100708008
1781547130114860,809817284,0.11563712358474731,-0.16907282173633575,-0.025727860629558563,-0.9784601330757141,4.80922269821167,1.3993823528289795,9.033782005310059,-9.942280769348145,-4.827643394470215,51.57759094238281
1781547130144387,809850618,0.13075211644172668,-0.175615593791008,-0.01694723218679428,-0.9755916595458984,4.588522911071777,0.45788729190826416,8.031618118286133,-21.088796615600586,-17.25957489013672,58.727256774902344
1781547130174359,809883952,0.14687322080135345,-0.18076898157596588,-0.009083793498575687,-0.9724565744400024,4.759476661682129,0.1436534821987152,9.135446548461914,-21.1894474029541,-13.145363807678223,60.4910774230957
1781547130204403,809950620,0.18408465385437012,-0.18925741314888,0.01616317592561245,-0.9643840789794922,3.8438520431518555,-2.2217352390289307,8.188352584838867,-18.249704360961914,-9.266639709472656,63.580989837646484
1781547130234347,809967287,0.19092249870300293,-0.19137507677078247,0.018509089946746826,-0.9625928401947021,3.923548698425293,-3.0652501583099365,8.409436225891113,-9.643481254577637,-13.059980392456055,50.322975158691406
1781547130294343,810000621,0.19868184626102448,-0.19339409470558167,0.02489788830280304,-0.9604727029800415,3.8413937091827393,-3.98051381111145,8.23892593383789,-20.277851104736328,-1.0719465017318726,24.6848201751709
1781547130324493,810033955,0.19733856618404388,-0.19325482845306396,0.03136007487773895,-0.9605885148048401,3.7340316772460938,-4.46325159072876,7.726673126220703,-22.639402389526367,7.4700446128845215,-10.36347484588623
1781547130354787,810067289,0.18703791499137878,-0.1917966902256012,0.0353831946849823,-0.9627993106842041,3.878257989883423,-3.6385200023651123,8.051970481872559,-19.102783203125,10.287819862365723,-40.0213623046875
1781547130384399,810100623,0.17155586183071136,-0.19164206087589264,0.04005570709705353,-0.9655263423919678,4.46029806137085,-2.265421152114868,7.735960483551025,-23.453102111816406,4.968479633331299,-51.879638671875
1781547130414380,810117290,0.16382291913032532,-0.19103410840034485,0.041030555963516235,-0.9669477343559265,4.794550895690918,-1.630462646484375,7.869029998779297,-15.595726013183594,10.16353988647461,-51.79398727416992
1781547130444422,810183958,0.13883109390735626,-0.1874435991048813,0.042972493916749954,-0.9714667201042175,5.07961893081665,-0.2580389976501465,8.719801902770996,-12.597705841064453,10.786911010742188,-33.440677642822266
1781547130474453,810217292,0.12995803356170654,-0.18427419662475586,0.04602537676692009,-0.9731592535972595,4.914215564727783,-0.4357951581478119,8.831602096557617,-14.665908813476562,18.111351013183594,-26.916711807250977
1781547130534962,810250626,0.12130957841873169,-0.18013036251068115,0.04771441966295242,-0.974968671798706,4.682546615600586,-0.8611815571784973,9.113021850585938,-8.449807167053223,20.495723724365234,-28.123777389526367
1781547130564409,810267293,0.11646940559148788,-0.17876073718070984,0.04962422326207161,-0.9757153987884521,4.6270928382873535,-1.087900996208191,8.953856468200684,-17.611751556396484,14.227046966552734,-30.356731414794922
1781547130594350,810300627,0.10657335817813873,-0.1760239154100418,0.05203377828001976,-0.9772173166275024,4.526710033416748,-1.4901479482650757,8.569158554077148,-9.575273513793945,14.069931983947754,-31.55333709716797
1781547130624419,810333961,0.09747764468193054,-0.1743137091398239,0.05014510452747345,-0.978571355342865,4.607860565185547,-1.3810036182403564,8.184713363647461,6.4297380447387695,6.149316787719727,-30.062049865722656
1781547130654497,810367295,0.09272697567939758,-0.17366503179073334,0.04072631895542145,-0.9795851111412048,4.684010982513428,-0.9671264290809631,7.366624355316162,40.20574188232422,-1.2853176593780518,-16.444242477416992
1781547130684450,810417296,0.09874957799911499,-0.1840084344148636,0.007689742371439934,-0.9779232144355774,4.511819362640381,-0.7579676508903503,7.593629360198975,91.98487091064453,-42.151695251464844,1.7588043212890625
1781547130714522,810450630,0.10387174040079117,-0.19939371943473816,-0.025376077741384506,-0.9740700125694275,4.80567741394043,-0.3059260845184326,7.090052604675293,116.54496765136719,-76.39362335205078,-3.28875470161438
1781547130774502,810483964,0.11207381635904312,-0.22764189541339874,-0.06756830215454102,-0.9649127721786499,5.826767444610596,1.0173084735870361,7.89772367477417,139.25523376464844,-125.18218231201172,10.226092338562012
1781547130804533,810517298,0.127552330493927,-0.2510882019996643,-0.09916597604751587,-0.9543870687484741,6.694410800933838,1.7469432353973389,9.206875801086426,89.99681854248047,-64.48191833496094,43.645286560058594
1781547130834326,810550632,0.14192919433116913,-0.2500542998313904,-0.10930769890546799,-0.9515168070793152,6.397170543670654,1.0382415056228638,8.08267593383789,38.575340270996094,13.327924728393555,37.6002197265625
1781547130864973,810567299,0.14670947194099426,-0.24561166763305664,-0.1122046411037445,-0.9516117572784424,6.681551933288574,1.1343989372253418,7.829605579376221,31.319610595703125,31.00301170349121,22.352746963500977
1781547130894790,810600633,0.15421967208385468,-0.2348567098379135,-0.11874356865882874,-0.9523454904556274,5.974584102630615,1.4951114654541016,7.828134536743164,36.78961944580078,32.508670806884766,13.968302726745605
1781547130924561,810667301,0.16472138464450836,-0.23113445937633514,-0.12682822346687317,-0.950453519821167,5.910759449005127,1.2418489456176758,7.7173895835876465,4.828693866729736,6.050638198852539,10.149273872375488
1781547130954498,810700635,0.16871589422225952,-0.227482408285141,-0.1317235827445984,-0.9499679207801819,5.870018482208252,1.2575067281723022,7.643317222595215,27.055923461914062,10.335223197937012,6.727523326873779
1781547131014539,810717302,0.1701790988445282,-0.22664636373519897,-0.13590137660503387,-0.949317991733551,5.674446105957031,1.1301783323287964,8.035076141357422,31.106491088867188,1.9127949476242065,2.406212568283081
1781547131044409,810750636,0.17090128362178802,-0.22788022458553314,-0.14066042006015778,-0.9481991529464722,5.516040325164795,0.9080200791358948,8.227299690246582,9.190910339355469,-8.592667579650879,-2.243865728378296
1781547131074365,810783970,0.16840976476669312,-0.23004502058029175,-0.14107009768486023,-0.9480612277984619,5.852651119232178,1.4687221050262451,7.618597030639648,-3.968292236328125,-3.9766933917999268,-8.411110877990723
1781547131104417,810817304,0.16697345674037933,-0.22932271659374237,-0.1423153579235077,-0.9483041763305664,5.958854675292969,1.6326206922531128,7.5248703956604,7.115524768829346,3.235173463821411,-6.254827976226807
1781547131134507,810850638,0.1657673567533493,-0.22862234711647034,-0.14599043130874634,-0.9481263756752014,5.786056995391846,1.5798664093017578,7.922128677368164,10.961735725402832,-0.8160338401794434,-8.309404373168945
1781547131164526,810900639,0.16320833563804626,-0.23065990209579468,-0.1476297229528427,-0.9478228092193604,5.832555770874023,1.8375824689865112,7.466803073883057,0.21453842520713806,-3.3774445056915283,-5.34478235244751
1781547131194515,810933973,0.1623726338148117,-0.2310917228460312,-0.1503216028213501,-0.9474378824234009,5.836801528930664,1.8635075092315674,7.612151145935059,9.912728309631348,-2.688617706298828,-5.1800432205200195
1781547131254548,810967307,0.16107457876205444,-0.23205673694610596,-0.1537429839372635,-0.9468744993209839,5.805415153503418,1.7231204509735107,7.718711853027344,10.120235443115234,-3.6592371463775635,-8.198936462402344
1781547131284563,811000641,0.15946950018405914,-0.23169995844364166,-0.154620960354805,-0.9470906257629395,5.855786323547363,1.770540475845337,7.589737415313721,-0.37381747364997864,4.128570079803467,-7.116389274597168
1781547131314368,811017308,0.15867142379283905,-0.23008976876735687,-0.15449553728103638,-0.9476373195648193,5.854018688201904,1.8355653285980225,7.579261302947998,-0.9680837988853455,11.53524398803711,-8.042278289794922
1781547131344560,811050642,0.15756931900978088,-0.22322401404380798,-0.15549731254577637,-0.949298083782196,5.983014106750488,1.856138825416565,7.837942123413086,7.946041584014893,28.04326629638672,-10.530914306640625
1781547131374465,811083976,0.15675854682922363,-0.21382790803909302,-0.1569575071334839,-0.9513527750968933,5.510184288024902,1.9052979946136475,7.9810380935668945,6.10042142868042,29.28965187072754,-9.662628173828125
1781547131404426,811150644,0.15719549357891083,-0.19848735630512238,-0.1585487276315689,-0.9543365240097046,5.068043231964111,1.7599443197250366,7.935049533843994,6.730958461761475,27.081398010253906,-14.967461585998535
1781547131434340,811167311,0.15505224466323853,-0.19734565913677216,-0.1589634120464325,-0.9548549056053162,4.4365057945251465,1.9530490636825562,8.427789688110352,0.4185824990272522,6.266660690307617,-17.19232940673828
1781547131494440,811200645,0.1493355631828308,-0.19752511382102966,-0.15499532222747803,-0.9563800096511841,5.329416751861572,1.9680612087249756,7.5865159034729,-14.56707763671875,12.39803695678711,-17.60308837890625
1781547131524609,811233979,0.14453063905239105,-0.194696843624115,-0.15285372734069824,-0.9580413103103638,5.131205081939697,1.7965127229690552,7.8494977951049805,-5.902405261993408,11.662117004394531,-18.49144172668457
1781547131554599,811267313,0.13769038021564484,-0.19300226867198944,-0.15527403354644775,-0.9590019583702087,4.847915172576904,1.727662205696106,8.091058731079102,3.78054141998291,-0.5508411526679993,-28.026023864746094
1781547131584456,811300647,0.1287856251001358,-0.19363224506378174,-0.1465906798839569,-0.961475670337677,4.558573246002197,1.8428295850753784,8.167765617370605,-42.108821868896484,0.4461706280708313,-24.827239990234375
1781547131614561,811317314,0.12339513003826141,-0.19593629240989685,-0.14072467386722565,-0.9625917077064514,5.1535444259643555,1.879215121269226,8.026023864746094,-49.227745056152344,-13.18790054321289,-27.238140106201172
1781547131645113,811383982,0.10625798255205154,-0.19648465514183044,-0.14513082802295685,-0.9638689756393433,5.910412788391113,1.6046278476715088,8.58516788482666,42.52327346801758,-4.993103981018066,-15.224811553955078
1781547131674527,811417316,0.10103953629732132,-0.19903446733951569,-0.15851062536239624,-0.9617973566055298,5.192492961883545,2.4080698490142822,8.158449172973633,46.10354995727539,-28.686002731323242,-30.85059928894043
1781547131734361,811450650,0.0932641327381134,-0.2027401477098465,-0.16597706079483032,-0.9605483412742615,4.7800612449646,2.113638401031494,8.199975967407227,10.02840805053711,-15.39620590209961,-30.248886108398438
1781547131764352,811467317,0.08868573606014252,-0.20364341139793396,-0.16749809682369232,-0.9605271220207214,5.350937843322754,2.708639621734619,8.296080589294434,2.9267046451568604,-11.470311164855957,-32.13253402709961
1781547131794347,811500651,0.0793030858039856,-0.20346002280712128,-0.16826480627059937,-0.961251974105835,5.050036430358887,2.722524642944336,8.101218223571777,-1.723626732826233,-8.492273330688477,-33.63968276977539
1781547131824373,811533985,0.06954247504472733,-0.20740632712841034,-0.17017404735088348,-0.9608281850814819,5.435207366943359,3.592405319213867,8.013273239135742,-6.915391445159912,-14.842129707336426,-29.02444839477539
1781547131855215,811567319,0.06161150336265564,-0.20502416789531708,-0.16579654812812805,-0.9626443386077881,4.943714618682861,3.0518226623535156,7.740429878234863,-22.64651107788086,10.690529823303223,-27.662322998046875
1781547131884378,811617320,0.04824865981936455,-0.19858130812644958,-0.15580247342586517,-0.9664194583892822,5.180016040802002,3.436656951904297,8.427657127380371,-40.90544128417969,19.0185604095459,-24.69959259033203
1781547131914320,811650654,0.040585994720458984,-0.1899511069059372,-0.1387115865945816,-0.9710992574691772,4.597565650939941,3.199883460998535,8.484280586242676,-68.8143539428711,32.91947937011719,-19.86874008178711
1781547131974477,811683988,0.03141038119792938,-0.1920749396085739,-0.14251883327960968,-0.9704701900482178,4.650003433227539,3.390031337738037,8.17587947845459,9.632143020629883,-47.353267669677734,-35.80154800415039
1781547132004543,811717322,0.02582361176609993,-0.18883369863033295,-0.131498783826828,-0.972823977470398,4.766024112701416,2.6061980724334717,8.290903091430664,-42.7728271484375,11.646134376525879,-8.679118156433105
1781547132034495,811750656,0.024714354425668716,-0.18928782641887665,-0.1253514587879181,-0.9735758900642395,4.790493011474609,2.4099762439727783,7.7136664390563965,-12.644701957702637,1.4274284839630127,0.46551746129989624
1781547132064340,811767323,0.024525467306375504,-0.19040536880493164,-0.1254020482301712,-0.9733560681343079,4.866822242736816,2.020582437515259,7.922247409820557,-0.21587665379047394,-7.2561421394348145,-0.9496420621871948
1781547132094338,811800657,0.023586399853229523,-0.19220106303691864,-0.12754853069782257,-0.9727473258972168,5.24223518371582,2.7325708866119385,8.668440818786621,6.812551975250244,-5.181924819946289,-5.392230987548828
1781547132124397,811867325,0.02191055566072464,-0.19014111161231995,-0.11349567025899887,-0.9749301075935364,4.6939239501953125,1.7829906940460205,7.951023101806641,-18.605669021606445,-9.38477611541748,-2.9348738193511963
1781547132154492,811900659,0.020345382392406464,-0.1950898915529251,-0.1133158802986145,-0.9740067720413208,4.562260627746582,1.7762842178344727,8.242707252502441,2.1980655193328857,-18.131086349487305,-6.736814498901367
1781547132214471,811917326,0.01956748589873314,-0.19648070633411407,-0.11172253638505936,-0.9739271998405457,5.147899627685547,2.2311370372772217,8.749410629272461,-12.134052276611328,-9.140604972839355,-2.583696126937866
1781547132244862,811950660,0.020073644816875458,-0.19163616001605988,-0.10007087141275406,-0.9761465191841125,4.585635662078857,2.08370304107666,8.456149101257324,-45.73935317993164,21.134443283081055,9.923149108886719
1781547132274711,811983994,0.020408719778060913,-0.19146934151649475,-0.09152263402938843,-0.9770107865333557,4.834958076477051,1.6156504154205322,8.140680313110352,-21.99106216430664,-0.3443121016025543,5.317859172821045
1781547132304830,812017328,0.020077697932720184,-0.19074256718158722,-0.08887491375207901,-0.9774041771888733,4.741121292114258,0.9242895841598511,8.581171035766602,-10.434428215026855,7.222201824188232,-1.6864690780639648
1781547132334743,812050662,0.0200139582157135,-0.18794582784175873,-0.0868716686964035,-0.978127121925354,4.81175422668457,1.403658390045166,8.415238380432129,-5.183742523193359,9.858068466186523,-0.12122494727373123
1781547132364432,812100663,0.01998664066195488,-0.19347095489501953,-0.08459483832120895,-0.9772495031356812,3.576465129852295,1.2721253633499146,8.518510818481445,-8.575172424316406,-54.56875228881836,0.8590912222862244
1781547132394331,812133997,0.01702382043004036,-0.20744559168815613,-0.08721300959587097,-0.9742043018341064,4.920310974121094,1.6301909685134888,8.348468780517578,14.516157150268555,-30.876550674438477,-10.100539207458496
1781547132455189,812167331,0.014520052820444107,-0.21170920133590698,-0.0866321250796318,-0.9733790159225464,5.3056640625,1.5188995599746704,7.83775520324707,-13.561063766479492,1.5438897609710693,-4.592206954956055
1781547132484479,812200665,0.014611277729272842,-0.21238216757774353,-0.08486343175172806,-0.973386824131012,5.254888534545898,1.4991552829742432,8.338446617126465,-5.677618980407715,-1.8820983171463013,1.9856696128845215
1781547132514744,812217332,0.01587381213903427,-0.21190288662910461,-0.08358407765626907,-0.9735822081565857,5.159962177276611,1.4057235717773438,8.037703514099121,-7.014092445373535,4.986276626586914,9.457513809204102
1781547132544358,812250666,0.01859430968761444,-0.21265371143817902,-0.0845753476023674,-0.9732848405838013,5.004443168640137,1.232928991317749,8.000204086303711,8.950919151306152,-2.563755750656128,7.321400165557861
1781547132574720,812284000,0.021052289754152298,-0.21325372159481049,-0.08763369917869568,-0.9728327393531799,4.934628963470459,1.5973706245422363,8.128952026367188,11.256677627563477,0.7863550186157227,3.118788957595825
1781547132604541,812350668,0.028226569294929504,-0.21267524361610413,-0.0859970971941948,-0.9729235172271729,4.669750690460205,1.0440404415130615,7.793318748474121,4.3061299324035645,-6.9231276512146,5.273214817047119
1781547132634473,812367335,0.030459724366664886,-0.21401390433311462,-0.08698353916406631,-0.9724749326705933,5.301839351654053,1.6225084066390991,8.302736282348633,9.695399284362793,-7.871572971343994,13.788440704345703
1781547132694418,812400669,0.035188522189855576,-0.21443231403827667,-0.08642721176147461,-0.9722728133201599,4.773853778839111,1.1778899431228638,8.619831085205078,-0.46192532777786255,-1.9029481410980225,14.106670379638672
1781547132724472,812434003,0.029099058359861374,-0.2232084423303604,-0.0830184668302536,-0.9707948565483093,6.300051689147949,1.6839519739151,8.132683753967285,-14.435873031616211,-50.374900817871094,-19.549699783325195
1781547132754293,812467337,0.029679149389266968,-0.2294619381427765,-0.0824977234005928,-0.9693626761436462,4.906187057495117,1.3356986045837402,8.032630920410156,5.2220635414123535,-23.832002639770508,3.980855941772461
1781547132784322,812500671,0.032361481338739395,-0.23616816103458405,-0.08936379104852676,-0.9670547246932983,5.951879024505615,1.5946500301361084,8.235244750976562,25.065834045410156,-13.094019889831543,7.931207180023193
1781547132814302,812517338,0.03485517203807831,-0.23597514629364014,-0.09134817123413086,-0.9668297171592712,5.488841533660889,1.4709402322769165,8.168420791625977,17.263288497924805,2.595050811767578,12.678018569946289
1781547132844325,812584006,0.042062465101480484,-0.24309372901916504,-0.08139700442552567,-0.965667724609375,5.487286567687988,1.5306438207626343,8.968421936035156,-46.880645751953125,-33.209739685058594,21.848621368408203
1781547132874424,812617340,0.04272191599011421,-0.2540876567363739,-0.07529045641422272,-0.9633011221885681,6.119978904724121,1.0049610137939453,7.436492443084717,31.69732093811035,-16.057701110839844,11.713748931884766
1781547132934406,812650674,0.048681918531656265,-0.2522576153278351,-0.07736243307590485,-0.9633352160453796,6.002225875854492,0.7479516863822937,7.961834907531738,10.95095443725586,6.0096659660339355,19.652437210083008
1781547132964457,812667341,0.05275841802358627,-0.2510260045528412,-0.07771342992782593,-0.9634140133857727,5.767085552215576,0.9610422253608704,8.077386856079102,9.663704872131348,10.918630599975586,25.103124618530273
1781547132994416,812700675,0.06103028729557991,-0.24786238372325897,-0.07697516679763794,-0.9638038873672485,5.353981018066406,0.44141238927841187,7.807801246643066,3.350297689437866,15.592049598693848,23.44113540649414
1781547133024550,812734009,0.06460969150066376,-0.24692946672439575,-0.07842231541872025,-0.963693380355835,5.759755611419678,1.2128708362579346,7.8328633308410645,7.921044826507568,6.336514472961426,7.196691036224365
1781547133055422,812767343,0.07005149126052856,-0.24554051458835602,-0.08056346327066422,-0.9634914398193359,5.966770648956299,1.9776908159255981,7.757202625274658,14.91901683807373,3.14070725440979,20.658708572387695
1781547133084504,812817344,0.08251482248306274,-0.24822059273719788,-0.07252497225999832,-0.9624560475349426,5.566802978515625,0.11986172944307327,7.864349842071533,-8.274630546569824,11.046592712402344,25.85833168029785
1781547133114335,812850678,0.08822961151599884,-0.24487729370594025,-0.07224646955728531,-0.9628264307975769,5.54492712020874,0.5348480343818665,7.820713996887207,2.4787440299987793,16.96669578552246,15.063323020935059
1781547133174766,812884012,0.09150846302509308,-0.24196159839630127,-0.07144708931446075,-0.9633169770240784,5.579477310180664,0.4572484493255615,8.032832145690918,-2.4787862300872803,11.650270462036133,8.53915786743164
1781547133204422,812917346,0.09465023875236511,-0.238646000623703,-0.07040359079837799,-0.963917076587677,5.480621337890625,0.4873204231262207,8.161334037780762,3.8793742656707764,14.725826263427734,10.575322151184082
1781547133234309,812950680,0.09822853654623032,-0.23515519499778748,-0.0722462609410286,-0.9642806053161621,5.415865898132324,0.5655406713485718,8.283879280090332,9.85997200012207,13.460519790649414,8.116373062133789
1781547133264962,812967347,0.09991796314716339,-0.23358310759067535,-0.0729488953948021,-0.9644362330436707,5.375323295593262,0.6902386546134949,8.100193977355957,8.401542663574219,11.576994895935059,8.50081729888916
1781547133294463,813000681,0.10305558890104294,-0.22929520905017853,-0.07232767343521118,-0.9651816487312317,5.363051891326904,0.6443309783935547,8.194903373718262,-1.2271699905395508,18.294925689697266,8.544516563415527
1781547133324544,813067349,0.10649670660495758,-0.21602731943130493,-0.06515771895647049,-0.9683742523193359,4.9025797843933105,-0.059335071593523026,8.298287391662598,-3.3857970237731934,15.298992156982422,-2.197136163711548
1781547133354469,813100683,0.10748852789402008,-0.21224373579025269,-0.06596068292856216,-0.9690466523170471,5.276792526245117,1.1129193305969238,8.449986457824707,3.580791473388672,11.154788970947266,1.119192123413086
1781547133414313,813117350,0.1085553765296936,-0.21054784953594208,-0.06694747507572174,-0.969230055809021,4.930383205413818,1.2365100383758545,7.979954242706299,9.377579689025879,11.831701278686523,4.058406829833984
1781547133444768,813150684,0.11030985414981842,-0.20869554579257965,-0.07043443620204926,-0.9691853523254395,5.010627746582031,1.2519224882125854,8.133203506469727,15.4750337600708,4.273002624511719,2.012410879135132
1781547133474302,813184018,0.11159199476242065,-0.20660988986492157,-0.07259822636842728,-0.969325840473175,4.8998188972473145,0.8976218104362488,8.039355278015137,12.509844779968262,5.529189586639404,1.108447790145874
1781547133504295,813217352,0.11299441009759903,-0.20566785335540771,-0.07611312717199326,-0.9690940976142883,4.694464206695557,0.07713177055120468,8.636465072631836,9.746615409851074,2.421316623687744,0.14448769390583038
1781547133534288,813250686,0.11042596399784088,-0.20230978727340698,-0.07516643404960632,-0.9701703786849976,4.670780181884766,-0.09606616944074631,8.642130851745605,-5.380966663360596,14.387039184570312,-13.118305206298828
1781547133564318,813300687,0.0935475304722786,-0.19224607944488525,-0.07442215830087662,-0.9740405678749084,4.92171573638916,1.7000606060028076,8.407869338989258,-7.312774658203125,18.68124008178711,-41.67216110229492
1781547133594420,813334021,0.08959418535232544,-0.1875818967819214,-0.07424525916576385,-0.9753342866897583,4.6657328605651855,1.179271936416626,8.695929527282715,-1.3507254123687744,15.238143920898438,-6.654557228088379
1781547133684342,813367355,0.0891033262014389,-0.18363367021083832,-0.07346998155117035,-0.9761889576911926,4.578726291656494,0.7714635729789734,8.50094985961914,-3.110562324523926,14.409093856811523,-3.278235912322998
1781547133714455,813400689,0.08645930141210556,-0.1794002503156662,-0.0707152783870697,-0.9774165153503418,4.45871639251709,0.6719627380371094,8.741800308227539,-12.550545692443848,17.543989181518555,-12.382411003112793
1781547133744332,813417356,0.08419079333543777,-0.17609988152980804,-0.06810441613197327,-0.9783998131752014,4.321418762207031,0.8013861775398254,8.992273330688477,-18.80625343322754,24.30678939819336,-14.934839248657227
1781547133774881,813450690,0.08055520057678223,-0.17192772030830383,-0.06341178715229034,-0.9797621965408325,4.379424571990967,1.026127576828003,8.805301666259766,-14.815305709838867,11.151396751403809,-10.684290885925293
1781547133804625,813484024,0.07936833798885345,-0.17244578897953033,-0.06099877879023552,-0.9799214005470276,4.344874382019043,0.7206411361694336,8.74821662902832,-9.229641914367676,-4.385958671569824,-1.3381744623184204
1781547133834444,813567359,0.0780472606420517,-0.18071779608726501,-0.04093743488192558,-0.9795802235603333,4.187567710876465,0.43692153692245483,8.581676483154297,-49.51723098754883,-17.300643920898438,10.957205772399902
1781547133864537,813600693,0.08558188378810883,-0.18703299760818481,-0.04231734573841095,-0.9777050018310547,4.308225631713867,-0.3723921477794647,8.986190795898438,43.512298583984375,-34.13528060913086,34.51762390136719
1781547133924497,813634027,0.09125728905200958,-0.19334571063518524,-0.03914373740553856,-0.9760946035385132,4.50960636138916,0.37903881072998047,8.5264892578125,-5.564795970916748,-25.805191040039062,26.532176971435547
1781547133954410,813667361,0.09630673378705978,-0.19874756038188934,-0.0364510677754879,-0.974627673625946,4.612015724182129,0.13157308101654053,8.333168029785156,-4.998265266418457,-16.55416488647461,17.306684494018555
1781547133984344,813700695,0.0990743339061737,-0.20314835011959076,-0.03439168632030487,-0.9735171794891357,5.068131923675537,-0.17340342700481415,8.654189109802246,-6.8420305252075195,-14.005692481994629,7.632867813110352
1781547134014276,813717362,0.09926898777484894,-0.20842066407203674,-0.034646883606910706,-0.9723730683326721,5.964241981506348,-0.3919951319694519,8.614461898803711,-1.246422290802002,-36.562835693359375,2.295504093170166
1781547134044355,813750696,0.09815989434719086,-0.21092422306537628,-0.03474999591708183,-0.971942126750946,4.381609916687012,0.07900325208902359,8.44743824005127,1.5351166725158691,-2.9600472450256348,-2.2318012714385986
1781547134074279,813817364,0.10103040933609009,-0.20452333986759186,-0.03284941613674164,-0.9730814695358276,4.179158687591553,0.15493866801261902,8.61796760559082,-5.923555374145508,10.47542953491211,7.934352397918701
1781547134104337,813850698,0.10460492968559265,-0.2018839567899704,-0.03183317556977272,-0.9732886552810669,4.727947235107422,-0.15921372175216675,8.887517929077148,1.779245138168335,10.876792907714844,12.209000587463379
1781547134164315,813867365,0.10628031939268112,-0.19944225251674652,-0.0320461131632328,-0.9736035466194153,4.813150882720947,-0.21676938235759735,8.835270881652832,5.5522780418396,17.414649963378906,9.480067253112793
1781547134194289,813900699,0.10814666002988815,-0.19382622838020325,-0.03272916376590729,-0.9745091199874878,4.878746509552002,-0.20310388505458832,8.471454620361328,5.228308200836182,19.503246307373047,2.6230320930480957
1781547134224393,813934033,0.10943090170621872,-0.18834972381591797,-0.03330983221530914,-0.9754194617271423,4.3559651374816895,-0.023587089031934738,8.528383255004883,5.179850101470947,19.623563766479492,3.214315414428711
1781547134254286,813967367,0.11202386021614075,-0.18313907086849213,-0.03293215110898018,-0.9761300086975098,4.402268886566162,-0.04776083305478096,8.73990249633789,1.6945065259933472,17.97679328918457,8.688371658325195
1781547134284509,814000701,0.11531712114810944,-0.1776493936777115,-0.03267478942871094,-0.9767694473266602,4.506908893585205,-0.2120327651500702,8.759415626525879,4.000513076782227,21.572856903076172,9.03738784790039
1781547134314907,814050702,0.11874347925186157,-0.1704406440258026,-0.031140722334384918,-0.9776931405067444,4.207763671875,-0.005219697020947933,8.659463882446289,-3.7563107013702393,14.55148983001709,6.964630603790283
1781547134344502,814084036,0.12158706039190292,-0.16880068182945251,-0.028374897316098213,-0.9777122735977173,4.110250473022461,-0.10654782503843307,8.858062744140625,-7.232583045959473,5.672787666320801,10.702600479125977
1781547134404826,814117370,0.12345544993877411,-0.1685630828142166,-0.02912973240017891,-0.9774969816207886,4.413266181945801,-0.1477455496788025,8.825119018554688,4.065639019012451,4.353896617889404,3.1566951274871826
1781547134434743,814150704,0.12448687851428986,-0.16914044320583344,-0.027809398248791695,-0.9773048758506775,4.140571117401123,-0.19853521883487701,9.04187297821045,-3.165742874145508,0.16832026839256287,4.172853946685791
1781547134464375,814167371,0.12520381808280945,-0.16900229454040527,-0.027864685282111168,-0.9772355556488037,4.149765968322754,-0.2800358235836029,8.958003997802734,1.5206326246261597,1.3285499811172485,4.078880786895752
1781547134494433,814200705,0.12672215700149536,-0.1680489331483841,-0.03029596619307995,-0.9771319627761841,4.0637898445129395,-0.11521005630493164,8.847515106201172,9.835798263549805,2.6317250728607178,3.0162103176116943
1781547134524476,814234039,0.12918461859226227,-0.1681848168373108,-0.031620074063539505,-0.9767439961433411,4.0222063064575195,-0.12213791906833649,8.824787139892578,4.988388538360596,-1.237708568572998,8.611115455627441
1781547134554442,814300707,0.13659697771072388,-0.169730544090271,-0.029929302632808685,-0.9755205512046814,4.112889766693115,-0.2186601161956787,8.546140670776367,-5.678827285766602,-3.564586639404297,14.169981956481934
1781547134584504,814317374,0.13848811388015747,-0.1711360067129135,-0.02812284789979458,-0.9750620722770691,4.132111072540283,-0.22565169632434845,8.701089859008789,-10.92379379272461,-7.506670951843262,14.788698196411133
1781547134644359,814350708,0.14255276322364807,-0.17304037511348724,-0.02576434798538685,-0.9742048978805542,4.133847713470459,-0.3217484951019287,8.860934257507324,-3.867572546005249,-2.36848521232605,14.784680366516113
1781547134674307,814384042,0.1472875475883484,-0.17360006272792816,-0.02407650835812092,-0.973443865776062,4.084798336029053,-0.3976636528968811,8.8384370803833,-2.5454955101013184,-0.5837781429290771,17.55298614501953
1781547134704350,814417376,0.15291424095630646,-0.1752002090215683,-0.023860463872551918,-0.9722943305969238,4.066554546356201,-0.45638248324394226,8.883309364318848,3.4944541454315186,-6.293548107147217,18.699119567871094
1781547134734302,814450710,0.15773054957389832,-0.17647784948349,-0.024342061951756477,-0.9712812900543213,4.258759021759033,-0.4512616991996765,8.810409545898438,4.132387638092041,-2.529012441635132,14.076089859008789
1781547134764351,814467377,0.15932613611221313,-0.1768510341644287,-0.024739356711506844,-0.970943033695221,4.268501281738281,-0.42738425731658936,8.82126522064209,4.491835117340088,-2.7188401222229004,9.878776550292969
1781547134794425,814534045,0.14410685002803802,-0.19233718514442444,-0.03817344084382057,-0.9699411988258362,4.503971099853516,-0.155602365732193,8.842305183410645,12.202580451965332,-23.825016021728516,-27.640932083129883
1781547134824546,814567379,0.13786794245243073,-0.1957005113363266,-0.042650241404771805,-0.9699887037277222,4.835759162902832,0.11717914044857025,8.714290618896484,7.781749725341797,-9.565531730651855,-21.611953735351562
1781547134884436,814600713,0.1337549090385437,-0.19558045268058777,-0.04449325054883957,-0.970505952835083,4.657534599304199,-0.09630949795246124,8.650528907775879,3.7093169689178467,-0.4302424490451813,-14.783150672912598
1781547134914304,814617380,0.13199812173843384,-0.19619686901569366,-0.045761097222566605,-0.9705631732940674,4.460525035858154,-0.14338326454162598,8.587055206298828,5.6964802742004395,-5.417730808258057,-14.062882423400879
1781547134944341,814650714,0.12875637412071228,-0.19834637641906738,-0.04749363288283348,-0.970478355884552,4.919783592224121,0.30975958704948425,8.795243263244629,-0.31417834758758545,-7.017345428466797,-9.950668334960938
1781547134974294,814684048,0.12719616293907166,-0.1999349147081375,-0.048017945140600204,-0.9703322649002075,4.690299987792969,0.06977471709251404,8.540160179138184,0.7510091662406921,-4.5897955894470215,-5.655091762542725
1781547135004346,814717382,0.12631021440029144,-0.20208103954792023,-0.05026350915431976,-0.9698895812034607,4.077539443969727,-0.5479804873466492,8.393655776977539,7.977859020233154,-14.661262512207031,-6.816532135009766
1781547135034282,814767383,0.12938176095485687,-0.21182511746883392,-0.05358075723052025,-0.9672244787216187,5.02241325378418,0.4244062304496765,8.462552070617676,0.6113056540489197,-16.734968185424805,12.787641525268555
1781547135124343,814800717,0.13334470987319946,-0.21542702615261078,-0.051140740513801575,-0.9660220742225647,5.164949417114258,0.41984206438064575,8.728809356689453,-4.725497722625732,-10.008238792419434,15.519771575927734
1781547135154256,814834051,0.1370830237865448,-0.21599306166172028,-0.050195783376693726,-0.965421736240387,4.8908772468566895,0.021777672693133354,8.22563648223877,-0.1903664916753769,0.7944231033325195,12.891973495483398
1781547135184314,814867385,0.139276385307312,-0.2166975885629654,-0.05002874135971069,-0.9649584889411926,5.304827690124512,-0.02941480651497841,8.346854209899902,1.4271076917648315,-3.4224207401275635,2.966764211654663
1781547135214955,814900719,0.13793283700942993,-0.21883219480514526,-0.04963841661810875,-0.9646898508071899,5.178203105926514,0.0369994081556797,8.537043571472168,-4.244806289672852,-6.458474636077881,-5.726809501647949
1781547135244326,814917386,0.13781790435314178,-0.21866562962532043,-0.05055735632777214,-0.9646962285041809,5.343765735626221,0.061317555606365204,8.71118450164795,6.249366283416748,0.4929357171058655,-2.9957773685455322
1781547135274281,815017388,0.13002102077007294,-0.24524806439876556,-0.06977763026952744,-0.9581661820411682,5.369431495666504,0.5451613068580627,8.24679946899414,14.572773933410645,-28.50298500061035,-22.5063419342041
1781547135304324,815050722,0.13059796392917633,-0.24714238941669464,-0.070832759141922,-0.9575235247612,5.6121931076049805,0.6062481999397278,8.090319633483887,6.036370277404785,-4.916141033172607,5.0648417472839355
1781547135364419,815067389,0.1320815235376358,-0.24939662218093872,-0.07222314924001694,-0.9566312432289124,5.53849458694458,0.4816629886627197,8.005139350891113,10.209179878234863,-16.623653411865234,8.490616798400879
1781547135394260,815100723,0.13445720076560974,-0.2538302540779114,-0.07459594309329987,-0.9549505710601807,5.481323719024658,0.33296987414360046,7.711208820343018,6.3731560707092285,-13.227729797363281,6.0120930671691895
1781547135424336,815134057,0.1363045573234558,-0.2548355758190155,-0.075287364423275,-0.9543663859367371,5.74082088470459,0.37565940618515015,7.924663066864014,4.443131446838379,-1.9128589630126953,5.292627811431885
1781547135454446,815167391,0.13900527358055115,-0.25580063462257385,-0.07533302158117294,-0.953714907169342,5.8594794273376465,0.24515187740325928,8.331816673278809,-0.9405243396759033,-3.5779547691345215,9.521672248840332
1781547135484318,815200725,0.14252972602844238,-0.2573326826095581,-0.07309531420469284,-0.9529563188552856,5.6501240730285645,0.16311675310134888,7.931883335113525,-5.789947032928467,-3.937225103378296,13.448577880859375
1781547135514733,815250726,0.14600273966789246,-0.2597963213920593,-0.071734219789505,-0.9518648982048035,5.374706268310547,-0.2670520842075348,7.901347637176514,-1.3574477434158325,-6.208903789520264,4.173276901245117
1781547135544294,815284060,0.14610829949378967,-0.26014143228530884,-0.07092824578285217,-0.9518148303031921,5.684782981872559,0.13059371709823608,7.82354736328125,-3.8664298057556152,2.53531813621521,-0.9392178058624268
1781547135604432,815317394,0.14620620012283325,-0.2604593336582184,-0.07046788185834885,-0.9517470002174377,5.580259799957275,0.21592864394187927,7.626728534698486,-0.329865962266922,-2.034250497817993,0.3763081729412079
1781547135634377,815350728,0.1473887413740158,-0.2619690001010895,-0.06943907588720322,-0.9512258172035217,5.765623092651367,0.21813538670539856,7.966114521026611,-5.648332118988037,-3.1735808849334717,7.320836067199707
1781547135664409,815367395,0.1482313871383667,-0.2626587450504303,-0.06739574670791626,-0.9510515332221985,5.63824987411499,0.21495139598846436,7.89333438873291,-12.322982788085938,-2.125049114227295,8.857832908630371
1781547135695104,815400729,0.15095117688179016,-0.2625177800655365,-0.0627734586596489,-0.9509789943695068,5.72049617767334,0.1542201191186905,8.10487174987793,-11.874814987182617,4.957311153411865,12.785137176513672
1781547135725015,815434063,0.15485551953315735,-0.2533223330974579,-0.053871747106313705,-0.9533880949020386,6.147024631500244,0.06676383316516876,8.135190963745117,-29.298967361450195,56.15279769897461,17.69350242614746
1781547135754897,815500731,0.1662650853395462,-0.2255980372428894,-0.030933860689401627,-0.9594311118125916,5.113928318023682,-0.545487105846405,8.324454307556152,-18.923219680786133,28.92315673828125,25.407840728759766
1781547135784952,815517398,0.1688474863767624,-0.22273506224155426,-0.027322005480527878,-0.9597586989402771,4.67302131652832,-0.5657655000686646,8.383188247680664,-16.38835906982422,24.311279296875,20.878740310668945
1781547135844169,815550732,0.17325901985168457,-0.22569280862808228,-0.026899192482233047,-0.9582920670509338,4.9310197830200195,-0.6370444893836975,8.406766891479492,2.900702476501465,-20.204879760742188,14.994162559509277
1781547135874884,815584066,0.17673760652542114,-0.22932186722755432,-0.027639688923954964,-0.9567732214927673,4.926557540893555,-0.6813684701919556,8.276226997375488,2.9608242511749268,-12.265446662902832,9.379948616027832
1781547135904836,815617400,0.17934733629226685,-0.23167146742343903,-0.028145380318164825,-0.9557061791419983,4.915463447570801,-0.6786661148071289,8.35252571105957,1.5108996629714966,-4.400032043457031,5.941769599914551
1781547135934279,815650734,0.18079417943954468,-0.23265591263771057,-0.028178874403238297,-0.9551931619644165,5.227289199829102,-0.6860474348068237,8.383813858032227,0.9546687006950378,-3.354585647583008,4.197928428649902
1781547135964359,815667401,0.18144984543323517,-0.23264193534851074,-0.02828051894903183,-0.9550692439079285,5.236900329589844,-0.7421551942825317,8.373391151428223,1.997835636138916,0.1151227056980133,3.510624408721924
1781547135994386,815734069,0.18341520428657532,-0.2311101108789444,-0.028248082846403122,-0.9550667405128479,5.050002574920654,-0.7282836437225342,8.305261611938477,-0.8073636889457703,3.2674059867858887,1.955318570137024
1781547136024344,815767403,0.18407002091407776,-0.2307485193014145,-0.027813130989670753,-0.9550409913063049,5.2871623039245605,-0.7732925415039062,8.387038230895996,0.11052519828081131,1.1679198741912842,1.7081812620162964
1781547136084243,815800737,0.18425312638282776,-0.2299155741930008,-0.027944257482886314,-0.9552027583122253,5.14182710647583,-0.7732584476470947,8.33328628540039,1.2233712673187256,4.1790385246276855,-0.6149096488952637
1781547136114265,815817404,0.1841960847377777,-0.228830486536026,-0.028035342693328857,-0.9554717540740967,4.999171733856201,-0.7114325165748596,8.306756973266602,2.06508207321167,7.633834362030029,-1.8924074172973633
1781547136144708,815850738,0.18429559469223022,-0.22641843557357788,-0.028535649180412292,-0.9560120701789856,5.077029705047607,-0.671567440032959,8.38706111907959,3.734825611114502,8.82886028289795,-1.557034969329834
1781547136174281,815884072,0.18446767330169678,-0.2238500714302063,-0.029488997533917427,-0.956554651260376,4.97587251663208,-0.6809150576591492,8.440103530883789,5.877302646636963,7.793261528015137,-1.861582636833191
1781547136204345,815917406,0.1843537539243698,-0.22058837115764618,-0.03025784157216549,-0.9573099613189697,4.82016134262085,-0.7033666372299194,8.398009300231934,4.087974548339844,12.679977416992188,-3.0577352046966553
1781547136234550,815967407,0.1806582361459732,-0.21416392922401428,-0.03307456150650978,-0.9593778848648071,4.6946258544921875,-0.5624207258224487,8.281349182128906,9.836958885192871,15.35912036895752,-17.897735595703125
1781547136264246,816000741,0.1776629388332367,-0.20964206755161285,-0.03520738333463669,-0.9608590602874756,4.798169136047363,-0.3395015001296997,8.533271789550781,6.957551002502441,13.650683403015137,-11.622878074645996
1781547136324316,816034075,0.17728495597839355,-0.20614473521709442,-0.03622372820973396,-0.9616473913192749,4.730762958526611,-0.3546110689640045,8.63573932647705,5.24706506729126,11.340803146362305,-1.010805606842041
1781547136384308,816067409,0.17847983539104462,-0.20460142195224762,-0.0369499996304512,-0.9617282748222351,4.662711143493652,-0.4714738428592682,8.661375045776367,4.42946720123291,5.114786148071289,2.3686435222625732
1781547136414724,816100743,0.17880266904830933,-0.20320992171764374,-0.03671608492732048,-0.961972177028656,4.613369941711426,-0.42186665534973145,8.669631958007812,0.008202468045055866,5.209553241729736,-0.7334837317466736
1781547136444380,816117410,0.17886774241924286,-0.20246443152427673,-0.03657155483961105,-0.9621228575706482,4.658165454864502,-0.40493515133857727,8.668031692504883,0.25166404247283936,5.506686210632324,-0.5976467728614807
1781547136474302,816150744,0.1792612373828888,-0.20073366165161133,-0.03609461709856987,-0.9624302983283997,4.58101749420166,-0.5048967003822327,8.61870002746582,0.13978774845600128,6.842670917510986,-0.2721349596977234
1781547136504250,816217412,0.1784290224313736,-0.20007237792015076,-0.036646611988544464,-0.9627017378807068,4.615635871887207,-0.419509619474411,8.607484817504883,1.7019065618515015,1.051100492477417,-4.886481285095215
1781547136534253,816267413,0.17623740434646606,-0.2004666030406952,-0.03883033245801926,-0.9629377126693726,4.622068405151367,-0.37544167041778564,8.768566131591797,6.7309489250183105,-2.7804129123687744,-7.590786457061768
1781547136564723,816300747,0.17481370270252228,-0.20074015855789185,-0.04141683131456375,-0.9630324840545654,4.504790306091309,-0.3256847858428955,8.540793418884277,7.7465314865112305,-1.8811126947402954,-7.632382392883301
1781547136625195,816334081,0.17254404723644257,-0.20170854032039642,-0.04045115411281586,-0.963280439376831,4.5978875160217285,-0.044761911034584045,9.094003677368164,-26.737838745117188,-5.453945159912109,-7.926525115966797
1781547136654281,816367415,0.1644580364227295,-0.210330531001091,-0.023745659738779068,-0.9634076356887817,4.9941086769104,-0.8614621162414551,8.689743041992188,-38.501949310302734,-14.175599098205566,-15.801427841186523
1781547136684328,816400749,0.1590489000082016,-0.213827446103096,-0.01910008303821087,-0.963649332523346,4.916846752166748,-0.7622002959251404,8.565512657165527,-18.02825355529785,-8.213177680969238,-15.341436386108398
1781547136714269,816417416,0.15687039494514465,-0.21471083164215088,-0.01832403615117073,-0.9638248682022095,4.586649417877197,-0.6164978742599487,8.296269416809082,-9.128901481628418,-4.849219799041748,-14.210992813110352
1781547136744566,816450750,0.15352967381477356,-0.21805165708065033,-0.014774019829928875,-0.9636738300323486,4.5614190101623535,-0.476707398891449,7.913545608520508,-18.06909942626953,-11.437192916870117,-7.038177490234375
1781547136774493,816517418,0.15326176583766937,-0.22210809588432312,-0.003781617619097233,-0.9628956913948059,4.697998523712158,-0.9414539337158203,8.613004684448242,-1.4096083641052246,6.207143783569336,7.388401985168457
1781547136804527,816550752,0.15545883774757385,-0.22269514203071594,-0.005837135948240757,-0.9623976349830627,4.959770202636719,-0.9500325322151184,8.37714672088623,10.11079216003418,-7.330448627471924,4.249821662902832
1781547136864381,816567419,0.15633144974708557,-0.22396625578403473,-0.00786694884300232,-0.9619466066360474,4.940708160400391,-0.956022322177887,8.475414276123047,13.61785888671875,-11.052750587463379,2.373819589614868
1781547136895263,816600753,0.1581955999135971,-0.2251797318458557,-0.012497366406023502,-0.9613092541694641,5.00131893157959,-0.8480807542800903,8.447344779968262,16.136934280395508,-4.526575565338135,2.3134377002716064
1781547136924360,816634087,0.16098852455615997,-0.22436144948005676,-0.01700836978852749,-0.9609677791595459,5.161792278289795,-0.6941730380058289,8.48202133178711,18.985279083251953,-0.08002699166536331,6.2675323486328125
1781547136954253,816667421,0.16580761969089508,-0.2243547886610031,-0.024309191852808,-0.9599924087524414,5.020952224731445,-0.5659034848213196,8.388079643249512,30.45249366760254,-6.62957763671875,11.063965797424316
1781547136984424,816700755,0.17124991118907928,-0.22343172132968903,-0.033306680619716644,-0.9589818120002747,4.760420322418213,-0.5229781270027161,8.20909309387207,34.780784606933594,1.533970594406128,8.611660957336426
1781547137014278,816750756,0.1732635498046875,-0.23177655041217804,-0.055853985249996185,-0.9555853605270386,5.189754009246826,-0.2715633809566498,7.505491733551025,64.1857681274414,-40.250919342041016,-16.921173095703125
1781547137044459,816784090,0.17727243900299072,-0.23391084372997284,-0.06835617125034332,-0.9535151720046997,6.155714511871338,0.8078585267066956,8.099340438842773,41.47796630859375,-14.507033348083496,9.052315711975098
1781547137104851,816817424,0.1838596910238266,-0.23784814774990082,-0.07653043419122696,-0.9506683945655823,5.309118270874023,0.5158699154853821,7.901010990142822,31.08709716796875,-18.069866180419922,24.318885803222656
1781547137134389,816850758,0.19043299555778503,-0.2417392134666443,-0.08247753977775574,-0.9478915333747864,5.7627153396606445,0.8509190678596497,8.37984561920166,21.36710548400879,-18.594026565551758,19.103355407714844
1781547137164290,816867425,0.19446340203285217,-0.24442347884178162,-0.08493473380804062,-0.946166455745697,6.23923397064209,1.1483689546585083,8.467876434326172,20.34202766418457,-21.21256446838379,25.047286987304688
1781547137194279,816900759,0.2054949402809143,-0.2552283704280853,-0.08529292047023773,-0.9409351348876953,6.08955192565918,1.2422682046890259,7.761183738708496,-4.40739631652832,-45.35978317260742,46.547542572021484
1781547137224239,816934093,0.21863079071044922,-0.2786616086959839,-0.07975301891565323,-0.9317678213119507,6.48081636428833,0.9833055138587952,7.597300052642822,-18.78998374938965,-83.97978973388672,64.21876525878906
1781547137254237,817000761,0.2538047134876251,-0.2940691411495209,-0.08051685988903046,-0.9179471135139465,6.45920467376709,0.5844553709030151,7.198195934295654,31.530359268188477,-7.972057819366455,60.12953186035156
1781547137284242,817017428,0.26406824588775635,-0.29317179322242737,-0.08237020671367645,-0.9151704907417297,6.730120658874512,0.6517719626426697,7.07552433013916,35.72406768798828,2.5806376934051514,64.51538848876953
1781547137344367,817050762,0.2906818389892578,-0.2752765417098999,-0.0823722705245018,-0.9126583337783813,6.529038429260254,0.5129910707473755,7.636961936950684,47.436988830566406,91.99474334716797,86.90198516845703
1781547137374853,817084096,0.3254828155040741,-0.23257653415203094,-0.07049265503883362,-0.9137851595878601,4.227668762207031,-0.9708408117294312,8.489107131958008,38.45473861694336,158.20843505859375,107.40978240966797
1781547137404496,817117430,0.34881526231765747,-0.21188321709632874,-0.07579637318849564,-0.9097757339477539,3.501413345336914,-1.2683062553405762,8.082566261291504,62.26259231567383,33.21814727783203,55.25325012207031
1781547137434399,817150764,0.36409685015678406,-0.20595325529575348,-0.08870229125022888,-0.9039646983146667,4.397412300109863,-0.6231318116188049,7.86602258682251,61.485992431640625,-2.7078402042388916,41.615257263183594
1781547137464702,817167431,0.37212738394737244,-0.20339007675647736,-0.09685032069683075,-0.900431752204895,4.8046464920043945,-0.323288232088089,8.07441234588623,70.9405517578125,-4.603599548339844,44.739158630371094
1781547137494639,817234099,0.4046121835708618,-0.19348923861980438,-0.11965323239564896,-0.8857412338256836,4.342894554138184,-0.28023841977119446,9.310880661010742,37.531829833984375,-2.712108850479126,43.5235595703125
1781547137524237,817267433,0.4179193377494812,-0.1916055679321289,-0.12812814116477966,-0.8787590265274048,5.234226703643799,0.1834295690059662,8.77709674835205,48.106666564941406,-9.46005630493164,44.96226119995117
1781547137584226,817300767,0.43472954630851746,-0.1926984339952469,-0.15512172877788544,-0.8659204840660095,5.1639580726623535,0.5828930139541626,7.554516792297363,109.372802734375,-47.41061019897461,53.84757995605469
1781547137614212,817317434,0.44416308403015137,-0.1918877363204956,-0.1714666336774826,-0.8581963777542114,5.004712104797363,0.5619401931762695,7.842803955078125,120.83802795410156,-44.38629913330078,55.71879959106445
1781547137644722,817350768,0.46157652139663696,-0.18757930397987366,-0.2028094232082367,-0.8429905772209167,4.973450183868408,0.7121003270149231,8.451013565063477,119.1279525756836,-30.834497451782227,47.380592346191406
1781547137674735,817384102,0.47773393988609314,-0.17747923731803894,-0.2334143966436386,-0.8281258940696716,5.32403039932251,1.1541099548339844,7.973190784454346,130.8028106689453,-15.717756271362305,42.0772819519043
1781547137704715,817417436,0.4935527741909027,-0.1679198294878006,-0.2580706775188446,-0.813395082950592,5.257421970367432,1.4294768571853638,7.555522441864014,90.9223861694336,-4.193300247192383,46.9547004699707
1781547137734201,817467437,0.5133638381958008,-0.16122163832187653,-0.27042776346206665,-0.7983341813087463,4.718212127685547,1.4606447219848633,7.078932285308838,37.009037017822266,5.193077087402344,41.838104248046875
1781547137764488,817500771,0.5220832824707031,-0.15938591957092285,-0.2750393748283386,-0.7914429306983948,4.70839786529541,1.7487488985061646,7.710397720336914,11.306510925292969,2.2696571350097656,27.736122131347656
1781547137824463,817534105,0.5274859070777893,-0.16891784965991974,-0.2587555944919586,-0.791374921798706,5.5517144203186035,1.7595703601837158,9.589288711547852,-70.71220397949219,-15.006067276000977,35.03154754638672
1781547137854405,817567439,0.5187668204307556,-0.18941622972488403,-0.26790860295295715,-0.7894498705863953,4.9077935218811035,1.413448452949524,6.87885046005249,1.8209881782531738,-103.8451919555664,-23.177215576171875
1781547137884302,817600773,0.5025185942649841,-0.21062706410884857,-0.2999245822429657,-0.7830453515052795,6.929136276245117,1.85579252243042,7.587366104125977,60.21242904663086,-135.00198364257812,-43.079681396484375
1781547137914257,817617440,0.49571728706359863,-0.21794623136520386,-0.31561800837516785,-0.7792001962661743,7.421112537384033,2.2333502769470215,7.853978157043457,57.47207260131836,-113.69234466552734,-32.113861083984375
1781547137944298,817650774,0.48697373270988464,-0.22642263770103455,-0.33940306305885315,-0.7722684144973755,7.397257328033447,2.4595422744750977,7.097126483917236,45.233394622802734,-67.3311767578125,-19.826099395751953
1781547137974407,817717442,0.4608963131904602,-0.22502407431602478,-0.3711680471897125,-0.7740650177001953,6.525628566741943,2.091770648956299,6.578246116638184,10.446306228637695,-34.71281051635742,-71.5730972290039
1781547138004468,817750776,0.43976888060569763,-0.22332429885864258,-0.37979191541671753,-0.7826182842254639,7.624837875366211,3.1532862186431885,6.625143051147461,-2.7826313972473145,-30.558679580688477,-77.25127410888672
1781547138064923,817767443,0.4299277067184448,-0.2241952121257782,-0.3839283287525177,-0.7858126163482666,7.591891288757324,3.0417709350585938,6.2291483879089355,-3.7541725635528564,-38.547096252441406,-67.84429931640625
1781547138094698,817800777,0.4079097509384155,-0.21806910634040833,-0.40258264541625977,-0.7899279594421387,5.96907377243042,3.2235350608825684,5.3012166023254395,49.78226852416992,-33.56830596923828,-100.50675964355469
1781547138124552,817834111,0.38197606801986694,-0.2099795937538147,-0.4149848222732544,-0.7986199259757996,7.551061153411865,3.6534743309020996,6.785364627838135,-2.6736302375793457,-17.561695098876953,-101.4686050415039
1781547138154663,817867445,0.3679591715335846,-0.20523272454738617,-0.4094550609588623,-0.8092191219329834,8.571051597595215,5.220783710479736,7.250248908996582,-46.2387809753418,5.916425704956055,-40.00905227661133
1781547138184768,817900779,0.35080569982528687,-0.20505470037460327,-0.40426889061927795,-0.819425642490387,6.021656036376953,4.386259078979492,5.152922630310059,-32.09748077392578,-17.135923385620117,-74.36363220214844
1781547138214799,817950780,0.30065786838531494,-0.20178209245204926,-0.4138990640640259,-0.8352127075195312,6.912364482879639,5.615790843963623,6.363339424133301,-26.524137496948242,-37.440921783447266,-113.69794464111328
1781547138244352,817984114,0.28429490327835083,-0.19213776290416718,-0.4039543867111206,-0.8479880690574646,6.296485424041748,5.504599094390869,5.775313377380371,-41.31086349487305,7.644222259521484,-55.951751708984375
1781547138304183,818017448,0.2630700170993805,-0.19222241640090942,-0.40438568592071533,-0.854587972164154,5.856132984161377,5.622429370880127,5.2208733558654785,-11.373339653015137,-28.795549392700195,-68.49676513671875
1781547138334268,818050782,0.24347034096717834,-0.18686076998710632,-0.4129992723464966,-0.8574615120887756,5.595272541046143,5.359621524810791,4.925525188446045,22.672754287719727,-9.876753807067871,-79.36225891113281
1781547138364400,818067449,0.2344340980052948,-0.17911502718925476,-0.4180198907852173,-0.8591982126235962,5.446795463562012,5.533283710479736,5.346128463745117,26.095556259155273,13.293676376342773,-85.74319458007812
1781547138394302,818100783,0.21936124563217163,-0.15746621787548065,-0.4261604845523834,-0.8634095191955566,4.657764911651611,6.163898468017578,6.065369129180908,27.535085678100586,38.35322952270508,-87.7067642211914
1781547138424303,818134117,0.19743090867996216,-0.14499038457870483,-0.44008946418762207,-0.8639003038406372,4.9167160987854,6.923538684844971,5.16951847076416,50.11566162109375,-16.30826759338379,-89.79745483398438
1781547138454225,818200785,0.17477098107337952,-0.08588442951440811,-0.5166452527046204,-0.8337626457214355,4.39531946182251,7.551615238189697,4.073922634124756,109.59529113769531,38.282875061035156,-55.303871154785156
1781547138484469,818217452,0.17875885963439941,-0.06114756315946579,-0.5390773415565491,-0.8207956552505493,3.122150421142578,8.511387825012207,2.517814874649048,206.93795776367188,120.65151977539062,-63.7542839050293
1781547138544505,818250786,0.1892864853143692,0.009257674217224121,-0.5929294228553772,-0.7826386094093323,2.289090156555176,8.709294319152832,5.588690757751465,247.52049255371094,149.78810119628906,-98.29888153076172
1781547138574928,818284120,0.1752728968858719,0.041220031678676605,-0.6204811334609985,-0.7632738351821899,2.7306177616119385,9.239847183227539,4.028798580169678,105.37940216064453,29.045616149902344,-78.8447265625
1781547138604333,818317454,0.16706310212612152,0.0544360876083374,-0.63068687915802,-0.7558863162994385,2.0368006229400635,9.541926383972168,1.443565011024475,57.505836486816406,4.214866638183594,-39.748199462890625
1781547138634258,818350788,0.165538027882576,0.06267264485359192,-0.6417029500007629,-0.7462508082389832,1.3391610383987427,9.415765762329102,2.608252763748169,46.97568893432617,17.638809204101562,-5.439737796783447
1781547138664332,818367455,0.1686314344406128,0.06444814056158066,-0.6451668739318848,-0.7424104809761047,1.3603473901748657,9.725104331970215,1.6697006225585938,35.75306701660156,19.505558013916016,12.976943016052246
1781547138694443,818434123,0.17077010869979858,0.0348099023103714,-0.5887660980224609,-0.7892932295799255,4.151656627655029,13.139812469482422,0.7184977531433105,-158.9412841796875,-14.717116355895996,33.45768356323242
1781547138724495,818467457,0.18517529964447021,0.01540696807205677,-0.5571465492248535,-0.8093602061271667,1.2647672891616821,7.157452583312988,2.7712910175323486,-127.74040222167969,-16.933921813964844,29.98128318786621
1781547138784433,818500791,0.18483012914657593,0.013466821983456612,-0.5352081060409546,-0.8241435885429382,2.9108500480651855,8.204080581665039,4.5203142166137695,-84.13009643554688,11.14409351348877,-17.613603591918945
1781547138814373,818517458,0.17997847497463226,0.009625822305679321,-0.5235968828201294,-0.8326854705810547,1.6677956581115723,8.308425903320312,8.016301155090332,-101.3366470336914,-26.424846649169922,-26.331113815307617
1781547138844375,818550792,0.14709320664405823,-0.009824699722230434,-0.47179409861564636,-0.8692992925643921,1.6208629608154297,8.996099472045898,6.202805519104004,-248.33865356445312,-76.62049865722656,-95.37337493896484
1781547138874250,818584126,0.05111134052276611,-0.09776142984628677,-0.32090771198272705,-0.9406659007072449,2.697288751602173,8.230175018310547,-0.0792270302772522,-689.0311279296875,-521.8847045898438,-218.0538330078125
1781547138904235,818617460,0.03180394694209099,-0.07515352219343185,-0.20752355456352234,-0.9748220443725586,4.070590972900391,1.0012660026550293,12.367180824279785,-570.3029174804688,219.71031188964844,28.925899505615234
1781547138934222,818667461,0.004689671099185944,-0.07764150202274323,-0.12142684310674667,-0.9895497560501099,1.844031810760498,1.3296449184417725,5.93635368347168,-113.99166870117188,-40.36781311035156,-6.790226459503174
1781547138964193,818700795,0.0025241076946258545,-0.07816580682992935,-0.1099432110786438,-0.9908581376075745,1.9503339529037476,2.7453813552856445,8.18314266204834,-7.179498672485352,9.220698356628418,-3.6237120628356934
1781547139024406,818734129,0.0020135901868343353,-0.07263583689928055,-0.13145971298217773,-0.9886566996574402,2.283503293991089,1.7770462036132812,9.430068016052246,95.54932403564453,17.134519577026367,-13.62900161743164
1781547139054379,818767463,-0.015265684574842453,-0.07112561911344528,-0.17341554164886475,-0.9821603894233704,0.14069905877113342,2.630052089691162,9.458026885986328,146.9064483642578,-22.500505447387695,-101.46947479248047
1781547139084880,818800797,-0.06164225935935974,-0.06956721842288971,-0.17552104592323303,-0.9800799489021301,2.5211708545684814,3.5963516235351562,7.5637102127075195,-13.941349983215332,9.303645133972168,-161.38084411621094
1781547139114644,818817464,-0.07575339078903198,-0.070452980697155,-0.17433926463127136,-0.9792380928993225,1.730101466178894,3.8017516136169434,10.953895568847656,-13.236572265625,-24.035297393798828,-94.87506866455078
1781547139144216,818850798,-0.11008483171463013,-0.07572642713785172,-0.15149544179439545,-0.9793874621391296,2.2639060020446777,3.8242809772491455,9.310702323913574,-80.44061279296875,-41.43128204345703,-110.72093963623047
1781547139174697,818917466,-0.21143509447574615,-0.07096269726753235,-0.11536828428506851,-0.9679635763168335,1.5996631383895874,2.884887456893921,7.847320556640625,-23.8452205657959,-4.894050598144531,-116.63951110839844
1781547139206127,818950800,-0.24901434779167175,-0.043987978249788284,-0.1298261284828186,-0.9587521553039551,1.7983555793762207,3.670966148376465,9.297045707702637,42.43336868286133,87.98748779296875,-96.79556274414062
1781547139264858,818967467,-0.25913453102111816,-0.03576450049877167,-0.14315897226333618,-0.9545047879219055,1.4648568630218506,3.3887364864349365,8.884700775146484,74.58068084716797,70.62079620361328,-72.66223907470703
1781547139294361,819000801,-0.2850390076637268,-0.020675836130976677,-0.18869610130786896,-0.9395332932472229,-0.9607858061790466,3.136998176574707,8.061288833618164,166.52145385742188,87.92207336425781,-120.46019744873047
1781547139324240,819034135,-0.3091472387313843,-0.010372418910264969,-0.24652108550071716,-0.918450653553009,0.7331352233886719,4.8882880210876465,9.194811820983887,180.9991912841797,66.94303131103516,-92.77315521240234
1781547139354213,819067469,-0.3152381181716919,-0.007154088467359543,-0.28149697184562683,-0.906276524066925,-1.1951631307601929,6.4984965324401855,11.757808685302734,80.01485443115234,31.2412109375,-27.440093994140625
1781547139384227,819100803,-0.3237721025943756,0.0063288239762187,-0.2674379348754883,-0.9075308442115784,-1.4167945384979248,4.6229023933410645,8.213621139526367,-67.38920593261719,8.496460914611816,-49.04490661621094
1781547139414327,819150804,-0.3464413583278656,0.02553391084074974,-0.24021252989768982,-0.9064369797706604,-1.4593867063522339,4.715953350067139,8.346940040588379,-62.34979248046875,0.9543599486351013,-57.954681396484375
1781547139444554,819184138,-0.36276775598526,0.03415330499410629,-0.222454234957695,-0.9042958617210388,-1.3204116821289062,4.184199810028076,8.74230670928955,-69.79139709472656,-10.052384376525879,-63.80198669433594
1781547139504207,819217472,-0.369319349527359,0.051388226449489594,-0.19059988856315613,-0.90809565782547,-1.1902490854263306,3.8723509311676025,9.178975105285645,-139.91685485839844,19.062780380249023,-31.466367721557617
1781547139534216,819250806,-0.37629204988479614,0.06039879843592644,-0.16858510673046112,-0.9090320467948914,-2.1910293102264404,2.402752161026001,8.912053108215332,-37.872901916503906,-35.964561462402344,-28.555124282836914
1781547139564211,819267473,-0.37984251976013184,0.05609479174017906,-0.16365163028240204,-0.9087325930595398,-1.4624507427215576,2.8174221515655518,9.467338562011719,-18.03693962097168,-43.669090270996094,-20.521560668945312
1781547139594232,819300807,-0.38060033321380615,0.05629053711891174,-0.15865573287010193,-0.9092891216278076,-1.5234016180038452,2.4996097087860107,9.325823783874512,-14.991963386535645,-9.70621109008789,-0.09794307500123978
1781547139624899,819334141,-0.38002461194992065,0.05164449289441109,-0.15373565256595612,-0.9106498956680298,-1.9278380870819092,2.537201404571533,8.898792266845703,-13.214165687561035,-40.50303649902344,6.220923900604248
1781547139654815,819400809,-0.3808654546737671,0.03935796022415161,-0.14579981565475464,-0.912216305732727,-1.6427536010742188,2.7809274196624756,8.660385131835938,-9.87566089630127,-20.78479766845703,-5.560860633850098
1781547139684881,819417476,-0.38118976354599,0.025603316724300385,-0.13428428769111633,-0.914336085319519,-1.8366641998291016,2.7323153018951416,8.993300437927246,-38.27955627441406,-117.4818115234375,13.003934860229492
1781547139744397,819450810,-0.3822605311870575,-0.006711199879646301,-0.09066209197044373,-0.9195737242698669,0.08064565062522888,2.3735530376434326,9.869961738586426,-127.87503814697266,-165.5542449951172,12.582671165466309
1781547139774374,819484144,-0.3857503831386566,-0.007905146107077599,-0.06458704173564911,-0.9203079342842102,0.1750449687242508,1.0170520544052124,10.117645263671875,-15.950095176696777,0.32838717103004456,-7.215592861175537
1781547139805213,819517478,-0.386370450258255,-0.007663077674806118,-0.062251146882772446,-0.9202107787132263,0.17597341537475586,1.5152751207351685,9.671733856201172,-11.044662475585938,-3.795945167541504,-2.3209855556488037
1781547139834218,819550812,-0.38688215613365173,-0.0075736502185463905,-0.060595110058784485,-0.9201070070266724,0.2294197976589203,1.4081517457962036,9.640028953552246,-4.18220853805542,-2.035147190093994,-2.2596423625946045
1781547139864229,819567479,-0.3871992826461792,-0.007807059213519096,-0.06052611395716667,-0.9199761152267456,0.2058076709508896,1.3754289150238037,9.641029357910156,0.04417550191283226,-1.775549054145813,-2.619628429412842
1781547139894206,819634147,-0.38604608178138733,-0.004038812592625618,-0.05687303841114044,-0.9207178354263306,0.44260260462760925,1.3909448385238647,9.443150520324707,-34.5111083984375,22.046457290649414,2.638411283493042
1781547139924464,819667481,-0.38271576166152954,0.0054745604284107685,-0.04814246669411659,-0.92259681224823,0.1760880947113037,1.1096341609954834,9.691689491271973,-39.33985137939453,20.329586029052734,8.78546142578125
1781547139984413,819700815,-0.37951740622520447,0.024987375363707542,-0.034901171922683716,-0.9241904616355896,-0.08218106627464294,0.8624160289764404,9.763733863830566,-69.552490234375,44.1989860534668,7.961367607116699
1781547140014183,819717482,-0.3769633173942566,0.04192298650741577,-0.02102087065577507,-0.9250420928001404,-0.07226117700338364,1.0017175674438477,9.721792221069336,-133.2071075439453,71.90939331054688,11.661417961120605
1781547140044132,819750816,-0.37597358226776123,0.027766235172748566,0.005881171207875013,-0.9261977672576904,0.0330997034907341,0.08569692075252533,11.499802589416504,-26.36836814880371,-73.9359359741211,-19.45763397216797
1781547140074176,819784150,-0.3759896457195282,0.027119042351841927,0.005956245120614767,-0.9262097477912903,0.09199078381061554,-0.09334258735179901,9.744717597961426,0.7242183089256287,-0.14852803945541382,0.09860249608755112
1781547140104159,819817484,-0.37588539719581604,0.027006927877664566,0.005734055768698454,-0.9262568354606628,0.09756981581449509,-0.09300284087657928,9.739431381225586,0.6698424220085144,-0.04789574071764946,0.1647600680589676
1781547140134285,819867485,-0.3757331967353821,0.026848560199141502,0.005356247536838055,-0.9263253211975098,0.09955798089504242,-0.07601944357156754,9.758122444152832,0.7796186208724976,0.055585965514183044,0.04672396928071976
1781547140164680,819900819,-0.3756283223628998,0.0267273411154747,0.005127159878611565,-0.9263727068901062,0.10511903464794159,-0.08482048660516739,9.760406494140625,0.7364099025726318,-0.05767979472875595,0.13435781002044678
1781547140224178,819934153,-0.37553098797798157,0.026612799614667892,0.0048759495839476585,-0.9264169335365295,0.10077383369207382,-0.09465505182743073,9.751631736755371,0.7490242123603821,-0.033501412719488144,0.10873231291770935
1781547140254339,819967487,-0.37543633580207825,0.026501856744289398,0.004646668676286936,-0.9264596104621887,0.12838591635227203,-0.09323886781930923,9.757865905761719,0.7145751118659973,-0.00686420314013958,0.07427042722702026
1781547140284388,820000821,-0.3753321170806885,0.026412343606352806,0.004403465893119574,-0.9265056252479553,0.09494830667972565,-0.08835377544164658,9.737261772155762,0.6777055859565735,0.0390145406126976,0.1086810827255249
1781547140314315,820017488,-0.37528887391090393,0.026348557323217392,0.004286899231374264,-0.9265254735946655,0.09198363125324249,-0.0876564159989357,9.760921478271484,0.7461811900138855,-0.04831835627555847,0.03831019625067711
1781547140344372,820050822,-0.3751792311668396,0.026231560856103897,0.004055786412209272,-0.926574170589447,0.08938361704349518,-0.09659692645072937,9.728864669799805,0.7028188705444336,-0.08997742086648941,0.10915493220090866
1781547140374317,820117490,-0.37497374415397644,0.02602727711200714,0.003576782764866948,-0.926665186882019,0.10238324105739594,-0.07712448388338089,9.745944023132324,0.7044452428817749,0.05831370875239372,0.09139250963926315
1781547140404417,820150824,-0.3748621642589569,0.02591746486723423,0.0033465956803411245,-0.9267141819000244,0.10812292248010635,-0.09684370458126068,9.743069648742676,0.7391760349273682,0.044393207877874374,0.1280442774295807
1781547140464231,820167491,-0.37480562925338745,0.025861289352178574,0.0032351776026189327,-0.9267390966415405,0.10896716266870499,-0.08652990311384201,9.72156047821045,0.6970176100730896,-0.006223886273801327,0.13047750294208527
1781547140494235,820200825,-0.37469831109046936,0.02575373277068138,0.002995604882016778,-0.9267861843109131,0.10291609168052673,-0.08952677249908447,9.74397087097168,0.7214713096618652,0.03822695463895798,0.11957287788391113
1781547140524234,820234159,-0.3745975196361542,0.025651611387729645,0.002756525296717882,-0.9268305897712708,0.07725317776203156,-0.10079898685216904,9.750454902648926,0.6982597708702087,-0.011871485970914364,0.058685094118118286
1781547140554821,820267493,-0.3744804263114929,0.025538837537169456,0.0025308867916464806,-0.9268816113471985,0.10502264648675919,-0.09299568086862564,9.751354217529297,0.7111557722091675,-0.016020743176341057,0.17024120688438416
1781547140584205,820300827,-0.37436652183532715,0.025420183315873146,0.002295443322509527,-0.9269314408302307,0.09528446942567825,-0.07827959954738617,9.76322078704834,0.7788373827934265,-0.0013318603159859776,0.13124588131904602
1781547140614196,820350828,-0.3742049038410187,0.025244353339076042,0.001959350425750017,-0.9270024299621582,0.09703665971755981,-0.09346416592597961,9.757732391357422,0.7909905314445496,-0.0681297704577446,0.13584335148334503
1781547140644416,820384162,-0.37409430742263794,0.0251394622027874,0.0017329519614577293,-0.9270501732826233,0.0833827555179596,-0.07955273985862732,9.755049705505371,0.727483868598938,0.025900840759277344,0.09696327894926071
1781547140704445,820417496,-0.374004602432251,0.02502162754535675,0.0015131636755540967,-0.927090048789978,0.10275516659021378,-0.07927379012107849,9.754810333251953,0.6955448389053345,-0.0321311317384243,0.055214572697877884
1781547140734214,820450830,-0.3738967180252075,0.024914151057600975,0.0012659335043281317,-0.9271368980407715,0.09922194480895996,-0.07997287064790726,9.753009796142578,0.8376569747924805,0.032316822558641434,0.07963629812002182
1781547140764198,820467497,-0.3738270103931427,0.02486502379179001,0.0011497553205117583,-0.9271664619445801,0.08870424330234528,-0.07554380595684052,9.734217643737793,0.7202995419502258,0.0639997273683548,0.21713805198669434
1781547140795207,820500831,-0.37373220920562744,0.02476244978606701,0.000958153628744185,-0.9272075891494751,0.10978598892688751,-0.08488485962152481,9.733620643615723,0.6105619072914124,0.1025596410036087,0.060477983206510544
1781547140824331,820534165,-0.37362632155418396,0.02465702034533024,0.0007543261745013297,-0.927253246307373,0.09633596241474152,-0.07244323194026947,9.743407249450684,0.6524899005889893,-0.03256654739379883,0.10125340521335602
1781547140854789,820600833,-0.37344419956207275,0.02442486397922039,0.0003082337789237499,-0.9273329377174377,0.10544439405202866,-0.1037207543849945,9.722485542297363,0.7390352487564087,0.06667625159025192,0.07423200458288193
1781547140884419,820617500,-0.3733956813812256,0.024359583854675293,0.00020271213725209236,-0.9273541569709778,0.09378961473703384,-0.08875073492527008,9.751230239868164,0.704714298248291,-0.05860186368227005,0.0538058765232563
1781547140944661,820650834,-0.3732861578464508,0.024245381355285645,-2.0357489120215178e-05,-0.9274014234542847,0.09700462222099304,-0.08204177021980286,9.746459007263184,0.7267795205116272,0.002580479485914111,0.09121322631835938
1781547140974210,820684168,-0.37317153811454773,0.02413337118923664,-0.00023790448904037476,-0.9274503588676453,0.1001373827457428,-0.09156163781881332,9.748659133911133,0.6995531916618347,0.04331747815012932,0.15126219391822815
1781547141004223,820717502,-0.3730819523334503,0.024038415402173996,-0.000440638221334666,-0.9274888634681702,0.11819722503423691,-0.08630818873643875,9.739006996154785,0.6453952193260193,0.01651378720998764,0.01997150108218193
1781547141034769,820750836,-0.372972697019577,0.023928454145789146,-0.000660993973724544,-0.9275355339050293,0.0974801704287529,-0.08841101080179214,9.76830005645752,0.7235906720161438,0.05544508993625641,0.08947154879570007
1781547141064625,820767503,-0.3729305565357208,0.02387251704931259,-0.0007689907215535641,-0.9275537729263306,0.10863444954156876,-0.10680699348449707,9.731592178344727,0.7059692740440369,0.012735914438962936,9.604762453818694e-05
1781547141094370,820834171,-0.3727194368839264,0.0236691664904356,-0.0012150006368756294,-0.9276434183120728,0.10634567588567734,-0.08643335103988647,9.741864204406738,0.7636234760284424,0.0012230066349729896,0.0591077096760273
1781547141124903,820867505,-0.3726249933242798,0.023555994033813477,-0.001427539624273777,-0.9276838302612305,0.09746595472097397,-0.0758620873093605,9.756741523742676,0.7047014236450195,-0.052352361381053925,0.014708094298839569
1781547141186084,820900839,-0.3725144863128662,0.023447999730706215,-0.001656161854043603,-0.9277306795120239,0.1187407597899437,-0.08090454339981079,9.722538948059082,0.7526996731758118,0.008394562639296055,0.04826073348522186
1781547141214334,820917506,-0.372470885515213,0.02340126596391201,-0.0017739729955792427,-0.9277490973472595,0.09606765955686569,-0.09602474421262741,9.761150360107422,0.7538649439811707,0.10084359347820282,0.005910130217671394
1781547141244178,820950840,-0.372366338968277,0.023280860856175423,-0.0019835978746414185,-0.9277938008308411,0.10797642916440964,-0.07961710542440414,9.74504280090332,0.7465013861656189,0.0035409557167440653,0.14579389989376068
1781547141274615,820984174,-0.372261106967926,0.02316172979772091,-0.0022011366672813892,-0.9278383255004883,0.09042089432477951,-0.0769277885556221,9.73701000213623,0.7258062958717346,-0.00259968894533813,0.06780321896076202
1781547141304189,821017508,-0.3721417784690857,0.023049665614962578,-0.002424076199531555,-0.9278884530067444,0.11483559012413025,-0.09122547507286072,9.727998733520508,0.6818420886993408,0.048657726496458054,0.1444748491048813
1781547141334206,821067509,-0.3719700574874878,0.022878888994455338,-0.0027495918329805136,-0.9279606938362122,0.10095275193452835,-0.08755985647439957,9.744231224060059,0.6977860331535339,-0.01603354886174202,0.07749763131141663
1781547141364219,821100843,-0.37187471985816956,0.022784747183322906,-0.002942511346191168,-0.9280006885528564,0.10008375346660614,-0.09018836170434952,9.743976593017578,0.6476234793663025,0.05346010997891426,0.00824088603258133
1781547141424184,821134177,-0.3717547655105591,0.022678250446915627,-0.003162175649777055,-0.9280504584312439,0.09984426200389862,-0.08653704822063446,9.75632095336914,0.7186474800109863,0.03925786167383194,0.14068414270877838
1781547141454206,821167511,-0.37163418531417847,0.02256787195801735,-0.0033808271400630474,-0.9281007647514343,0.11188879609107971,-0.09203726798295975,9.753222465515137,0.779413640499115,0.07323311269283295,0.12253756821155548
1781547141484679,821200845,-0.37152597308158875,0.02246215008199215,-0.0035982513800263405,-0.9281458258628845,0.1001981794834137,-0.09098586440086365,9.733438491821289,0.7098622918128967,0.0875634178519249,0.07681889086961746
1781547141514176,821217512,-0.37146392464637756,0.022403758019208908,-0.0036909582559019327,-0.928171694278717,0.08395504206418991,-0.091679647564888,9.72553539276123,0.6410409808158875,-0.03261777386069298,0.12646910548210144
1781547141544197,821250846,-0.371334969997406,0.022305289283394814,-0.003904114942997694,-0.9282247424125671,0.09387901425361633,-0.0834507942199707,9.762319564819336,0.6890775561332703,0.08469479531049728,0.09269875288009644
1781547141574349,821317514,-0.37110912799835205,0.022061681374907494,-0.004299909342080355,-0.9283192157745361,0.10117805749177933,-0.09029565751552582,9.748058319091797,0.6828025579452515,-0.017877664417028427,0.09148215502500534
1781547141604417,821350848,-0.37098363041877747,0.021931802853941917,-0.004498349502682686,-0.9283715486526489,0.09525228291749954,-0.08106546849012375,9.752131462097168,0.7092989087104797,-0.05751332268118858,0.10581246018409729
1781547141664644,821367515,-0.37092310190200806,0.02187228575348854,-0.00460637453943491,-0.9283965229988098,0.09659335762262344,-0.0884789451956749,9.734272003173828,0.7530197501182556,0.001146168215200305,0.11162654310464859
1781547141694642,821400849,-0.3708120286464691,0.02176603674888611,-0.00483423937112093,-0.9284422993659973,0.10284098982810974,-0.08698766678571701,9.752464294433594,0.781641960144043,0.04683922603726387,0.05120619013905525
1781547141724194,821434183,-0.3706950843334198,0.021666139364242554,-0.005037552677094936,-0.9284902811050415,0.11195316910743713,-0.09125050157308578,9.741141319274902,0.7004880905151367,0.03612030670046806,0.03480125591158867
1781547141754194,821467517,-0.37057554721832275,0.021548543125391006,-0.005224466323852539,-0.9285395741462708,0.10934265702962875,-0.0816662535071373,9.747509956359863,0.6154283285140991,0.051526349037885666,0.0714530274271965
1781547141784866,821500851,-0.370457261800766,0.021435411646962166,-0.005412880796939135,-0.9285884499549866,0.10489723086357117,-0.08355093002319336,9.72657299041748,0.7119882702827454,-0.042132891714572906,0.08483566343784332
1781547141814607,821550852,-0.37028971314430237,0.021282734349370003,-0.005709610879421234,-0.9286569356918335,0.09959021955728531,-0.09221965819597244,9.73542308807373,0.6889623999595642,0.04738989844918251,0.0072547965683043
1781547141844172,821584186,-0.37016892433166504,0.021184951066970825,-0.005910111125558615,-0.9287060499191284,0.09853881597518921,-0.09943287074565887,9.72952651977539,0.7343993186950684,0.0018377113156020641,0.03827177733182907
1781547141904363,821617520,-0.37005341053009033,0.021069586277008057,-0.006108887493610382,-0.9287534356117249,0.10937114804983139,-0.08058983087539673,9.748544692993164,0.684454619884491,0.032624177634716034,0.0509500652551651
1781547141934827,821650854,-0.36994311213493347,0.020968414843082428,-0.006309648044407368,-0.9287983179092407,0.09717628359794617,-0.0905817523598671,9.753265380859375,0.69367516040802,0.07120971381664276,0.02518368884921074
1781547141964397,821667521,-0.36987772583961487,0.020919805392622948,-0.0064027938060462475,-0.9288248419761658,0.10460036993026733,-0.08825723081827164,9.742722511291504,0.6539754271507263,0.03385358303785324,0.13232159614562988
1781547141994533,821700855,-0.3697584867477417,0.02081402949988842,-0.006598266307264566,-0.9288733601570129,0.09522360563278198,-0.07927379012107849,9.734189987182617,0.7037025094032288,-0.00977124460041523,0.07234946638345718
1781547142024371,821734189,-0.36964908242225647,0.020716367289423943,-0.006803647615015507,-0.9289175271987915,0.10507618635892868,-0.09225540608167648,9.728322982788086,0.6646559238433838,0.014400740154087543,0.07329714298248291
1781547142055166,821800857,-0.3694227635860443,0.020490525290369987,-0.007179345469921827,-0.9290097951889038,0.1064135804772377,-0.0908714309334755,9.752310752868652,0.6817012429237366,-0.04379772022366524,0.046467844396829605
1781547142084807,821817524,-0.36936768889427185,0.02043001540005207,-0.007279886864125729,-0.9290322065353394,0.10411054641008377,-0.07399888336658478,9.727469444274902,0.7460914254188538,-0.023883841931819916,0.051974568516016006
1781547142144371,821850858,-0.3692567050457001,0.020333267748355865,-0.007484260946512222,-0.9290767908096313,0.10368140041828156,-0.08664077520370483,9.748418807983398,0.7555554509162903,0.0444188266992569,0.07163232564926147
1781547142174226,821884192,-0.3691215217113495,0.020232656970620155,-0.007665123324841261,-0.9291313290596008,0.11084454506635666,-0.09629295766353607,9.745450973510742,0.6713536381721497,-0.010987848974764347,0.10757973790168762
1781547142204869,821917526,-0.368992418050766,0.020141011103987694,-0.007883270271122456,-0.9291828274726868,0.0902634710073471,-0.08880795538425446,9.740966796875,0.7458097338676453,0.12690451741218567,0.0718628317117691
1781547142234185,821950860,-0.3688823878765106,0.020029904320836067,-0.008076418191194534,-0.9292271733283997,0.09783430397510529,-0.07677759230136871,9.725137710571289,0.7371782660484314,-0.028097130358219147,0.060977429151535034
1781547142264501,821967527,-0.36881905794143677,0.01998217962682247,-0.008176545612514019,-0.9292524456977844,0.09071775525808334,-0.08519954234361649,9.725616455078125,0.7232577800750732,0.05509931594133377,0.10495443642139435
1781547142294482,822034195,-0.3685511648654938,0.019760848954319954,-0.008550409227609634,-0.929360032081604,0.11086951196193695,-0.08941591531038284,9.740962982177734,0.7079670429229736,-0.03853430226445198,0.06779041886329651
1781547142324523,822067529,-0.3684278726577759,0.019661039113998413,-0.008727461099624634,-0.929409384727478,0.10626699775457382,-0.07721031457185745,9.734149932861328,0.6471496820449829,-0.03329651057720184,0.11615999042987823
1781547142384665,822100863,-0.3683015704154968,0.019557984545826912,-0.008916887454688549,-0.9294599294662476,0.10765137523412704,-0.09234479069709778,9.737703323364258,0.7057515978813171,0.04202403500676155,0.1968015879392624
1781547142414080,822117530,-0.368245393037796,0.019520476460456848,-0.009004758670926094,-0.929482102394104,0.08976637572050095,-0.09950081259012222,9.751870155334473,0.6339206695556641,0.08710239082574844,0.04340711981058121
1781547142444177,822150864,-0.3681156635284424,0.019424542784690857,-0.00920492596924305,-0.9295334815979004,0.1084807813167572,-0.08007483929395676,9.756804466247559,0.7672860622406006,0.044610921293497086,0.10524899512529373
1781547142474439,822184198,-0.367986798286438,0.019333021715283394,-0.009383115917444229,-0.9295846223831177,0.08773151785135269,-0.07726753503084183,9.754083633422852,0.6955704689025879,0.01761513389647007,0.15510410070419312
1781547142504508,822217532,-0.36785975098609924,0.0192361231893301,-0.009559794329106808,-0.929635226726532,0.10260853916406631,-0.10064162313938141,9.748930931091309,0.7324656248092651,0.0005058508249931037,0.11338102072477341
1781547142534465,822267533,-0.36765629053115845,0.019075101241469383,-0.009828971698880196,-0.9297160506248474,0.09736581891775131,-0.08225277066230774,9.745128631591797,0.7321197986602783,-0.01608477346599102,0.0977700725197792
1781547142564515,822300867,-0.3675352931022644,0.01896495185792446,-0.010003726929426193,-0.929764449596405,0.1011887863278389,-0.08744184672832489,9.75207805633545,0.6516831517219543,-0.049137961119413376,0.062296487390995026
1781547142624927,822334201,-0.36740437150001526,0.018864024430513382,-0.0101944450289011,-0.9298161268234253,0.10607388615608215,-0.08546420186758041,9.748440742492676,0.7111173868179321,0.03966766595840454,0.08936910331249237
1781547142654348,822367535,-0.36726778745651245,0.01875712350010872,-0.010382726788520813,-0.9298701286315918,0.1020435020327568,-0.09205157309770584,9.749832153320312,0.7201074361801147,0.03063919208943844,0.13095131516456604
1781547142684184,822400869,-0.36714011430740356,0.018646392971277237,-0.010557458736002445,-0.9299207329750061,0.09918968379497528,-0.07407398521900177,9.748018264770508,0.68595290184021,-0.028737451881170273,0.08632120490074158
1781547142714180,822417536,-0.36706894636154175,0.018587766215205193,-0.010654288344085217,-0.9299489259719849,0.10037698596715927,-0.09378603845834732,9.726418495178223,0.7710639238357544,-0.03159326687455177,0.1460115909576416
1781547142744183,822450870,-0.36692485213279724,0.01849472150206566,-0.01083316095173359,-0.930005669593811,0.11808984726667404,-0.08005341142416,9.707428932189941,0.6439992785453796,0.049413297325372696,0.11131919175386429
1781547142774318,822517538,-0.36666858196258545,0.018290052190423012,-0.011190739460289478,-0.930106520652771,0.09449770301580429,-0.10103500634431839,9.743802070617676,0.657356321811676,-0.05492643266916275,0.11760710924863815
1781547142804170,822550872,-0.366537481546402,0.018210621550679207,-0.011365296319127083,-0.9301576018333435,0.10144969820976257,-0.086912602186203,9.726922988891602,0.6965181231498718,0.13237282633781433,0.15908686816692352
1781547142864167,822567539,-0.3664766550064087,0.018165351822972298,-0.01145254634320736,-0.9301814436912537,0.11208906769752502,-0.08102970570325851,9.743809700012207,0.6927658915519714,0.02537578158080578,0.060439564287662506
1781547142894173,822600873,-0.36633527278900146,0.018065426498651505,-0.011629375629127026,-0.9302369356155396,0.10183978080749512,-0.08077936619520187,9.72319507598877,0.6928427219390869,-0.03067120537161827,0.1334613710641861
1781547142924155,822634207,-0.3662104904651642,0.017953984439373016,-0.011787822470068932,-0.9302862286567688,0.08890093863010406,-0.08440564572811127,9.75346565246582,0.6171315312385559,-0.08033423125743866,0.02633625827729702
1781547142954188,822667541,-0.3660942018032074,0.017925171181559563,-0.011982649564743042,-0.9303300976753235,0.12578162550926208,-0.07521247863769531,9.742836952209473,0.6912547945976257,0.5655220150947571,-0.05108452960848808
1781547142984170,822700875,-0.3659939765930176,0.018001766875386238,-0.012256460264325142,-0.9303643703460693,0.08755268156528473,-0.08181408792734146,9.735939979553223,0.828333854675293,0.6864394545555115,-0.04797258600592613
1781547143014175,822750876,-0.36624982953071594,0.019194582477211952,-0.013397810980677605,-0.9302241802215576,0.039918266236782074,-0.06751389801502228,9.774502754211426,1.2579869031906128,1.0159597396850586,-0.8454111814498901
1781547143044149,822784210,-0.3673788607120514,0.019684825092554092,-0.014052881859242916,-0.9297588467597961,0.02200494147837162,-0.24839948117733002,9.734834671020508,2.223381757736206,4.008792400360107,-8.866121292114258
1781547143104314,822817544,-0.3778964877128601,0.01973474584519863,-0.014047118835151196,-0.9255330562591553,0.049427613615989685,-0.035909753292798996,9.748397827148438,0.6926801204681396,-1.0746124982833862,-40.3028450012207
1781547143134281,822850878,-0.3947191834449768,0.01965922676026821,-0.013491940684616566,-0.9184943437576294,0.06344643235206604,0.060036975890398026,9.761557579040527,-0.6813366413116455,-1.6278340816497803,-74.30219268798828
1781547143164347,822867545,-0.4042009711265564,0.01957148127257824,-0.013101848773658276,-0.9143688678741455,0.04990168660879135,0.10994501411914825,9.745634078979492,-0.5369031429290771,-1.862243413925171,-71.533203125
1781547143194628,822900879,-0.4129648208618164,0.019425367936491966,-0.012899246998131275,-0.9104504585266113,0.08852893114089966,-0.07668626308441162,9.729883193969727,0.6755427718162537,-0.40456622838974,-24.368358612060547
1781547143224186,822934213,-0.4136017858982086,0.018596690148115158,-0.012494288384914398,-0.910184383392334,0.1206420361995697,-0.08179318159818649,9.742801666259766,-0.18838141858577728,-3.089826822280884,0.20746929943561554
1781547143254184,823000881,-0.4132844805717468,0.018121592700481415,-0.01259476225823164,-0.9103365540504456,0.10319513082504272,-0.07177089899778366,9.731441497802734,0.7098240256309509,-0.05071314796805382,0.09823111444711685
1781547143284200,823017548,-0.41321057081222534,0.018072769045829773,-0.012679829262197018,-0.9103699326515198,0.11666660755872726,-0.0834507942199707,9.744900703430176,0.6816755533218384,0.0007619777461513877,0.15400275588035583
1781547143344198,823050882,-0.41308265924453735,0.017969565466046333,-0.012856949120759964,-0.910427451133728,0.10054855793714523,-0.09608911722898483,9.732154846191406,0.7360385060310364,-0.004226095043122768,0.0913412794470787
1781547143374186,823084216,-0.4129292368888855,0.017870638519525528,-0.013031485490500927,-0.9104965925216675,0.09262734651565552,-0.06920676678419113,9.733080863952637,0.7189804315567017,0.06341063976287842,0.21502500772476196
1781547143404181,823117550,-0.41278892755508423,0.017777711153030396,-0.013185825198888779,-0.9105598330497742,0.10448604822158813,-0.06209368631243706,9.730316162109375,0.6493523120880127,0.032829076051712036,0.09141811728477478
1781547143434198,823150884,-0.41265344619750977,0.017683107405900955,-0.013362717814743519,-0.9106204509735107,0.10291609168052673,-0.09194071590900421,9.755725860595703,0.7010899782180786,0.008087209425866604,0.04407304897904396
1781547143464199,823167551,-0.41258934140205383,0.017646603286266327,-0.013453449122607708,-0.9106489419937134,0.09659693390130997,-0.07927736639976501,9.748332977294922,0.699630081653595,0.08977891504764557,0.07330995798110962
1781547143494338,823234219,-0.41232264041900635,0.017459509894251823,-0.013788304291665554,-0.9107683300971985,0.11484631896018982,-0.09005247801542282,9.733742713928223,0.6536552906036377,-0.036715805530548096,0.0908418521285057
1781547143524406,823267553,-0.41219663619995117,0.01737041212618351,-0.013968408107757568,-0.910824179649353,0.10562339425086975,-0.08398007601499557,9.760998725891113,0.723962128162384,-0.03127310052514076,0.11412377655506134
1781547143584830,823300887,-0.412058562040329,0.017272064462304115,-0.014142337255179882,-0.9108858704566956,0.09276307374238968,-0.06538738310337067,9.756734848022461,0.7092733383178711,0.04202403500676155,0.17310982942581177
1781547143614334,823317554,-0.41198980808258057,0.017241915687918663,-0.014216728508472443,-0.9109163880348206,0.10346325486898422,-0.08265688270330429,9.713826179504395,0.5945155620574951,0.07882948219776154,0.10117655247449875
1781547143644868,823350888,-0.4118601083755493,0.01714405044913292,-0.014374700374901295,-0.9109744429588318,0.09653256088495255,-0.08921564370393753,9.738030433654785,0.6800107955932617,0.010840575210750103,0.10312312841415405
1781547143674325,823384222,-0.41172271966934204,0.017058778554201126,-0.014546104706823826,-0.9110353589057922,0.08099387586116791,-0.07292959839105606,9.742822647094727,0.7221437096595764,0.025311749428510666,0.06662504374980927
1781547143704641,823417556,-0.4115796387195587,0.01697329618036747,-0.01469881646335125,-0.9110991954803467,0.08792117983102798,-0.08687321841716766,9.735379219055176,0.6579710245132446,-0.006620883475989103,0.14135007560253143
1781547143734617,823467557,-0.4113774001598358,0.01681552268564701,-0.014956452883780003,-0.9111892580986023,0.08960187435150146,-0.08041460067033768,9.726754188537598,0.743389368057251,-0.0005378666683100164,0.09168706089258194
1781547143764664,823500891,-0.41124072670936584,0.01672755554318428,-0.015120294876396656,-0.9112498760223389,0.09921114146709442,-0.09253078699111938,9.76648235321045,0.6923432350158691,-0.042465854436159134,0.11142164468765259
1781547143824244,823534225,-0.4111027419567108,0.01665194146335125,-0.015282122418284416,-0.9113107919692993,0.09731221944093704,-0.07614816725254059,9.746854782104492,0.7217722535133362,0.08995819836854935,0.0433943085372448
1781547143854240,823567559,-0.41097572445869446,0.01656145602464676,-0.015445031225681305,-0.9113671183586121,0.10320570319890976,-0.08307529985904694,9.749757766723633,0.7026907801628113,0.01600153185427189,0.060247473418712616
1781547143884597,823600893,-0.41083478927612305,0.016473235562443733,-0.015600723214447498,-0.9114295840263367,0.10088123381137848,-0.07565466314554214,9.75064754486084,0.6669738292694092,0.043740082532167435,0.12466339766979218
1781547143914192,823617560,-0.41076651215553284,0.0164303258061409,-0.01568114385008812,-0.911459743976593,0.0972120463848114,-0.08415888249874115,9.741999626159668,0.6999501585960388,0.006038193590939045,0.08962523192167282
1781547143944342,823650894,-0.41063183546066284,0.01635371334850788,-0.01583155058324337,-0.9115191698074341,0.09554910659790039,-0.08713071793317795,9.74457836151123,0.63837730884552,-0.02145063504576683,0.05874912440776825
1781547143974149,823717562,-0.41033539175987244,0.016187334433197975,-0.016163846477866173,-0.911649763584137,0.09463350474834442,-0.07999618351459503,9.743827819824219,0.7213240265846252,0.007024282589554787,0.08856230229139328
1781547144005536,823750896,-0.4102027714252472,0.016105715185403824,-0.016320491209626198,-0.9117081165313721,0.1015392541885376,-0.0814695805311203,9.734672546386719,0.7298658490180969,-0.05391472950577736,0.07079990208148956
1781547144064373,823767563,-0.4101416766643524,0.016054503619670868,-0.016405457630753517,-0.911734938621521,0.10605600476264954,-0.07226799428462982,9.737948417663574,0.7686242461204529,-0.03893130272626877,0.032656192779541016
1781547144094349,823800897,-0.41000187397003174,0.015972398221492767,-0.016566619277000427,-0.9117963910102844,0.09712263941764832,-0.07491081207990646,9.750550270080566,0.6855302453041077,0.02012517675757408,0.0830811858177185
1781547144124221,823834231,-0.4098634123802185,0.015876514837145805,-0.01671801507472992,-0.911857545375824,0.10075248777866364,-0.08142666518688202,9.747102737426758,0.6713665127754211,-0.015137105248868465,0.13780272006988525
1781547144154183,823867565,-0.40971839427948,0.015801062807440758,-0.01686650887131691,-0.9119213223457336,0.10262284427881241,-0.07872305065393448,9.755568504333496,0.662517249584198,0.03435302898287773,0.07234946638345718
1781547144184405,823900899,-0.40957602858543396,0.015727531164884567,-0.017025243490934372,-0.9119836688041687,0.1048615500330925,-0.08373332023620605,9.753218650817871,0.740751326084137,0.07530774176120758,0.06393569707870483
1781547144214393,823950900,-0.40937700867652893,0.015611376613378525,-0.017259787768125534,-0.9120705127716064,0.09473730623722076,-0.0846237912774086,9.747239112854004,0.6968766450881958,0.029179265722632408,0.06967294216156006
1781547144244372,823984234,-0.4092419445514679,0.015540783293545246,-0.01741342805325985,-0.9121294617652893,0.0946049913764,-0.08601494133472443,9.746809959411621,0.6931500434875488,0.06351309269666672,0.04698009416460991
1781547144304195,824017568,-0.40910452604293823,0.015462885610759258,-0.017574243247509003,-0.9121891856193542,0.1037493497133255,-0.07714236527681351,9.746501922607422,0.7213369011878967,0.05554753914475441,0.02112407423555851
1781547144334194,824050902,-0.4089733362197876,0.015390744432806969,-0.01772407814860344,-0.9122464656829834,0.09818477183580399,-0.07532922923564911,9.751794815063477,0.6610829830169678,-0.010321917943656445,0.09809023141860962
1781547144364206,824067569,-0.40891167521476746,0.015356883406639099,-0.017806358635425568,-0.9122731685638428,0.0966470018029213,-0.08356881141662598,9.735040664672852,0.7334772944450378,0.051321446895599365,0.02528613805770874
1781547144395395,824100903,-0.4087725579738617,0.015298274345695972,-0.017956219613552094,-0.9123334288597107,0.08995591849088669,-0.08493134379386902,9.706209182739258,0.6708798408508301,0.09359520673751831,0.06666345149278641
1781547144424138,824134237,-0.40864577889442444,0.015218584798276424,-0.01810888759791851,-0.9123885035514832,0.09951511770486832,-0.08129434287548065,9.765953063964844,0.6610701680183411,-0.017070863395929337,0.007088313810527325
1781547144454997,824200905,-0.40835610032081604,0.015077409334480762,-0.018404845148324966,-0.9125146269798279,0.09573869407176971,-0.07038690149784088,9.72811222076416,0.6525667309761047,0.041242845356464386,0.05923577770590782
1781547144484191,824217572,-0.4082857370376587,0.015041298232972622,-0.0184885673224926,-0.9125450253486633,0.09616054594516754,-0.06652819365262985,9.748799324035645,0.7625349164009094,0.036235563457012177,0.0872688740491867
1781547144544371,824250906,-0.4081375002861023,0.014972046948969364,-0.018630042672157288,-0.9126096963882446,0.10802292078733444,-0.09068188816308975,9.750082015991211,0.7157661318778992,0.028935950249433517,0.11630087345838547
1781547144574359,824284240,-0.40800613164901733,0.014907119795680046,-0.018772784620523453,-0.9126665592193604,0.10490446537733078,-0.08493849635124207,9.743887901306152,0.6452414989471436,-0.012204451486468315,0.10948789119720459
1781547144604375,824317574,-0.4078713655471802,0.0148378387093544,-0.01891990192234516,-0.9127247929573059,0.1084270253777504,-0.08476684242486954,9.740995407104492,0.6975041627883911,-0.02520289458334446,0.06033711135387421
1781547144634185,824350908,-0.4077245891094208,0.014771239832043648,-0.019065767526626587,-0.9127883911132812,0.10595229268074036,-0.07974584400653839,9.745408058166504,0.724346399307251,0.047159384936094284,0.12742958962917328
1781547144664152,824367575,-0.40765392780303955,0.014728247188031673,-0.01913623698055744,-0.9128191471099854,0.09933996945619583,-0.08481690287590027,9.722508430480957,0.7135505676269531,-0.049637410789728165,0.08571929484605789
1781547144694173,824434243,-0.4073541760444641,0.014585975557565689,-0.019411684945225716,-0.9129495024681091,0.11402736604213715,-0.07167792320251465,9.740544319152832,0.6945459246635437,0.04102514311671257,0.10165040194988251
