host_t_us,sensor_t_us,qw,qx,qy,qz,ax,ay,az,gx,gy,gz
1781547126424757,805990197,0.3189794421195984,0.622417688369751,-0.3338356018066406,0.6319829225540161,9.7466402053833,-0.12300942093133926,0.07991187274456024,-3.4378011226654053,1.460801362991333,-1.4579776525497437
1781547126426413,806023531,0.31895384192466736,0.6224491596221924,-0.3336535692214966,0.632060706615448,9.782539367675781,-0.08751457929611206,0.08659037202596664,-2.6298608779907227,0.8067552447319031,-1.5201905965805054
1781547126427698,806040198,0.31891679763793945,0.6225035190582275,-0.33353203535079956,0.6320902109146118,9.772912979125977,-0.06012296304106712,0.08983020484447479,-2.6037611961364746,0.793654203414917,-1.617262601852417
1781547126665539,806056865,0.3188443183898926,0.6225529909133911,-0.33345627784729004,0.6321179270744324,9.774032592773438,-0.06404934823513031,0.08620390295982361,-2.666064500808716,0.6258783340454102,-1.2594659328460693
1781547126667397,806256869,0.3193708658218384,0.6232433915138245,-0.33201512694358826,0.6319302916526794,9.742435455322266,-0.12610766291618347,0.12648923695087433,-3.446035385131836,0.6842241287231445,-1.02064049243927
1781547126669261,806273536,0.31934720277786255,0.6232591867446899,-0.33200982213020325,0.6319293975830078,9.71507453918457,-0.14407972991466522,0.11523300409317017,-3.320110321044922,0.609089195728302,-1.1562726497650146
1781547126905498,806290203,0.31942543387413025,0.6233106255531311,-0.33180293440818787,0.6319479942321777,9.734695434570312,-0.12571513652801514,0.09787262976169586,-2.758104085922241,1.2127935886383057,-2.501464605331421
1781547126907992,806506874,0.3194897174835205,0.6241130828857422,-0.32983386516571045,0.632154107093811,9.713974952697754,-0.0494975782930851,0.04687229171395302,-3.4181301593780518,0.3056811988353729,-1.0630295276641846
1781547126910899,806523541,0.3194490671157837,0.6241371035575867,-0.3298443555831909,0.6321455836296082,9.745168685913086,-0.1109013482928276,0.08924710750579834,-3.31538462638855,0.47144654393196106,-1.0500950813293457
1781547127145312,806540208,0.31948304176330566,0.6241790056228638,-0.3298153877258301,0.6321020722389221,9.744413375854492,-0.12485180050134659,0.08316206932067871,-3.501973867416382,0.498839408159256,-1.6616754531860352
1781547127146944,806740212,0.32043251395225525,0.6253790259361267,-0.32752710580825806,0.631625235080719,9.660298347473145,-0.004326885100454092,0.029932517558336258,-2.124189615249634,1.4747859239578247,-3.904093027114868
1781547127149492,806756879,0.32065925002098083,0.6254868507385254,-0.32688358426094055,0.6317365765571594,9.673003196716309,0.03676704689860344,0.0409858301281929,-1.169053316116333,2.6682350635528564,-4.9495134353637695
1781547127385332,806773546,0.32085949182510376,0.6255741119384766,-0.32632818818092346,0.6318356990814209,9.822892189025879,0.0801740437746048,0.16098035871982574,-1.5097790956497192,2.450962781906128,-4.436042785644531
1781547127388040,806990217,0.2845568060874939,0.6572058200836182,-0.30454596877098083,0.6279808282852173,10.52364444732666,3.5641744136810303,1.8393089771270752,81.24327087402344,-73.80473327636719,58.55055236816406
1781547127390195,807006884,0.26457923650741577,0.6655469536781311,-0.30671778321266174,0.6268728375434875,10.194191932678223,2.0631978511810303,1.4755456447601318,91.43009185791016,-86.41314697265625,75.32988739013672
1781547127625321,807023551,0.24182860553264618,0.6747307777404785,-0.311008095741272,0.6241244673728943,10.259613037109375,0.88525390625,1.1159772872924805,93.06792449951172,-107.25930786132812,92.22671508789062
1781547127626820,807223555,0.26862049102783203,0.7199741005897522,-0.1940511018037796,0.6097743511199951,5.550687313079834,2.09609317779541,2.370229482650757,-118.77761840820312,107.7798843383789,-418.2066955566406
1781547127628591,807240222,0.3227345943450928,0.7207396030426025,-0.14649607241153717,0.5957480072975159,4.3116912841796875,8.599631309509277,2.406989336013794,-89.36194610595703,88.25393676757812,-490.99224853515625
1781547127866070,807256889,0.3715977966785431,0.7225491404533386,-0.08455978333950043,0.5767906904220581,3.214641571044922,14.714824676513672,1.8521896600723267,-7.005659103393555,86.17073059082031,-552.8836059570312
1781547127887569,807456893,0.12442643940448761,0.7288641333580017,-0.16248808801174164,0.6533551216125488,9.881341934204102,-17.336912155151367,1.0636078119277954,38.63298416137695,90.14563751220703,-167.07333374023438
1781547127887968,807473560,0.14999909698963165,0.7280758619308472,-0.13762271404266357,0.6545732021331787,12.168021202087402,-12.017783164978027,1.7155489921569824,-19.244068145751953,60.275150299072266,-238.86138916015625
1781547128106826,807490227,0.1817523092031479,0.728947103023529,-0.12001819163560867,0.6489976644515991,11.16956615447998,-6.945071220397949,1.4692728519439697,-87.59474182128906,17.141101837158203,-238.9480743408203
1781547128107328,807706898,0.2877578139305115,0.707758903503418,-0.042563486844301224,0.6437867879867554,7.118307113647461,-4.321600437164307,-0.19597777724266052,-29.53484535217285,112.23686981201172,119.05252075195312
1781547128109519,807723565,0.29317161440849304,0.697383463382721,-0.03925086557865143,0.6528141498565674,9.642107963562012,-4.410185813903809,2.103832960128784,-33.045074462890625,98.77936553955078,-20.40727996826172
1781547128345332,807740232,0.3083357810974121,0.688805341720581,-0.032777417451143265,0.6552878618240356,10.953736305236816,-2.060100555419922,2.365813970565796,-63.75481033325195,68.2854995727539,-93.04901123046875
1781547128347430,807940236,0.3227335512638092,0.6380968689918518,-0.0036415185313671827,0.6990438103675842,7.990861415863037,3.1744143962860107,4.002297878265381,161.0123291015625,110.17605590820312,-37.459659576416016
1781547128348935,807956903,0.31881192326545715,0.635255753993988,0.004355282057076693,0.7034132480621338,9.518998146057129,3.6765618324279785,4.216644287109375,45.96275329589844,51.23841857910156,-7.673680782318115
1781547128585519,807973570,0.31739580631256104,0.6324566602706909,0.0023888894356787205,0.7065783143043518,9.157644271850586,2.9982550144195557,2.828726291656494,-13.034563064575195,23.855058670043945,21.084789276123047
1781547128587885,808190241,0.3545706272125244,0.49243974685668945,0.03907904028892517,0.7938864827156067,8.844526290893555,3.548156976699829,5.1952900886535645,-100.14849853515625,115.37792205810547,-24.101354598999023
1781547128590118,808206908,0.3466825783252716,0.44401243329048157,0.04363162815570831,0.8250822424888611,18.939701080322266,-0.9297787547111511,10.105798721313477,-78.41057586669922,384.137451171875,89.49574279785156
1781547128825343,808223575,0.3467440903186798,0.37399983406066895,0.027316417545080185,0.859736442565918,12.575983047485352,6.5906596183776855,5.790968418121338,-273.77484130859375,465.30401611328125,109.91240692138672
1781547128827790,808423579,0.6562288403511047,0.25622349977493286,0.18022947013378143,0.6864626407623291,-14.484381675720215,1.3312091827392578,8.159975051879883,70.19763946533203,-47.13655090332031,-50.78179931640625
1781547128829790,808440246,0.647177517414093,0.2686616778373718,0.17455615103244781,0.6917459964752197,-15.04943561553955,1.5791856050491333,8.116869926452637,35.287235260009766,-63.0427360534668,90.72787475585938
1781547129065694,808456913,0.6241872906684875,0.2783002257347107,0.1623096913099289,0.7117547392845154,-13.212456703186035,1.0265198945999146,6.764242649078369,-0.6716035604476929,-36.214962005615234,229.8699951171875
1781547129067621,808656917,0.4968852698802948,0.26337093114852905,0.12156182527542114,0.8179020881652832,3.583638906478882,1.426789402961731,6.233802318572998,-6.771117210388184,123.44031524658203,-271.8926086425781
1781547129069894,808673584,0.526362955570221,0.24689510464668274,0.13446615636348724,0.802436113357544,-0.3084937632083893,1.6420122385025024,6.452037811279297,-27.66731071472168,84.9375,-257.0892639160156
1781547129305317,808690251,0.5521934628486633,0.23610395193099976,0.1412944346666336,0.7870027422904968,-3.072343349456787,1.8787544965744019,7.802456855773926,-34.4520149230957,34.98957824707031,-221.25198364257812
1781547129307534,808906922,0.45565927028656006,0.25416478514671326,0.08602245897054672,0.8487492203712463,8.289484024047852,2.9227817058563232,8.99618911743164,20.66472625732422,30.225393295288086,-128.60995483398438
1781547129309217,808923589,0.471483439207077,0.24439255893230438,0.0990644320845604,0.8415237069129944,6.927002429962158,2.8618617057800293,8.425936698913574,18.62778091430664,76.69239044189453,-144.82723999023438
1781547129545778,808940256,0.4890143871307373,0.22933422029018402,0.11420498043298721,0.8338033556938171,4.726019382476807,2.6412370204925537,7.260740280151367,11.105818748474121,112.10368347167969,-163.44842529296875
1781547129547305,809140260,0.4259744882583618,0.2103659063577652,0.07857497036457062,0.8764235377311707,11.316997528076172,4.491510391235352,9.602548599243164,14.478753089904785,24.705120086669922,-44.70978927612305
1781547129549989,809156927,0.4376622140407562,0.20556038618087769,0.0846722424030304,0.8712217807769775,7.74669075012207,3.510298252105713,9.133513450622559,5.089431285858154,33.74317169189453,-98.34069061279297
1781547129785477,809173594,0.4515354037284851,0.2007800191640854,0.08953199535608292,0.864747166633606,5.04974889755249,2.9491875171661377,9.138102531433105,-4.5960869789123535,26.812185287475586,-113.5046615600586
1781547129787445,809390265,0.4229349195957184,0.18691851198673248,0.07681600749492645,0.8833385705947876,6.95488166809082,2.915081739425659,9.141210556030273,15.416462898254395,18.270963668823242,-131.9841766357422
1781547129789061,809406932,0.44078144431114197,0.18092992901802063,0.08308929949998856,0.8752556443214417,4.242907524108887,2.4928746223449707,9.314848899841309,-1.459179401397705,35.60353469848633,-144.400146484375
1781547130025544,809423599,0.4578375518321991,0.1701270490884781,0.09009680896997452,0.8679426312446594,1.889606237411499,2.3477842807769775,9.381731033325195,-11.08706283569336,68.2173080444336,-140.97682189941406
1781547130027925,809623603,0.3872520327568054,0.18351611495018005,0.06893543899059296,0.9008916020393372,8.609884262084961,2.4795234203338623,8.957902908325195,12.506808280944824,26.843530654907227,-90.64205932617188
1781547130029558,809640270,0.40130501985549927,0.17859090864658356,0.07464267313480377,0.8952587842941284,6.020124435424805,2.1017563343048096,8.676329612731934,3.7061007022857666,32.73015213012695,-112.8539810180664
1781547130265265,809656937,0.4163370430469513,0.1716076284646988,0.08028609305620193,0.8892518877983093,4.360561847686768,2.247365951538086,9.117964744567871,-3.374657154083252,44.272987365722656,-120.89620971679688
1781547130267454,809856941,0.4045518934726715,0.17421835660934448,0.06818828731775284,0.8951738476753235,5.851511001586914,2.868351936340332,10.099830627441406,-16.79789161682129,-15.082426071166992,113.26175689697266
1781547130269507,809873608,0.3956901729106903,0.17761871218681335,0.06498967111110687,0.8986976742744446,7.5148844718933105,3.2351391315460205,9.847152709960938,-4.719353199005127,-20.71816635131836,68.50967407226562
1781547130505282,809890275,0.3939017951488495,0.18187640607357025,0.06562646478414536,0.8985854387283325,8.2378511428833,3.4643747806549072,9.540237426757812,14.296472549438477,-23.165863037109375,10.605093002319336
1781547130508667,810106946,0.45018646121025085,0.17360380291938782,0.08353767544031143,0.8719034790992737,1.046035647392273,2.596200704574585,10.438372611999512,-17.69562339782715,1.4805967807769775,80.65682983398438
1781547130510238,810123613,0.43895724415779114,0.17368395626544952,0.07946528494358063,0.8779726028442383,2.001903772354126,2.6026721000671387,10.153390884399414,-17.697221755981445,1.3520383834838867,89.74759674072266
1781547130745577,810140280,0.4278888404369354,0.1749458909034729,0.07532486319541931,0.8835335373878479,3.18458890914917,2.67561411857605,9.968968391418457,-14.454754829406738,-6.68427038192749,87.96862030029297
1781547130747719,810340284,0.43488264083862305,0.16790303587913513,0.07088923454284668,0.8818506002426147,1.5246071815490723,2.552518606185913,9.657063484191895,-16.08443260192871,-3.9676036834716797,-5.405104637145996
1781547130749409,810356951,0.434743732213974,0.1684814840555191,0.06930464506149292,0.8819348216056824,1.7888953685760498,2.620933771133423,9.902475357055664,-11.207779884338379,-7.296859264373779,1.9294637441635132
1781547130985458,810373618,0.43412283062934875,0.16945551335811615,0.06818624585866928,0.8821412324905396,2.154860258102417,2.6123294830322266,10.142827033996582,-6.698005676269531,-7.9334211349487305,4.866894721984863
1781547130987747,810590289,0.4365924596786499,0.18201486766338348,0.07150501012802124,0.87814861536026,2.6596298217773438,2.7271268367767334,9.14764404296875,2.6852939128875732,-6.738895416259766,-6.23315954208374
1781547130990027,810606956,0.4371035397052765,0.1836053729057312,0.07165475189685822,0.8775507807731628,2.656247138977051,2.7312731742858887,9.176962852478027,1.887150764465332,-9.365850448608398,-5.563093185424805
1781547131226711,810623623,0.43753325939178467,0.18531501293182373,0.07173767685890198,0.8769702911376953,2.6944477558135986,2.758918046951294,9.3475341796875,1.936353325843811,-10.223276138305664,-4.878299713134766
1781547131229455,810823627,0.44248440861701965,0.2042253464460373,0.0772353783249855,0.8697898387908936,3.031543731689453,3.0491552352905273,9.325145721435547,2.4803664684295654,-6.885131359100342,-7.104516506195068
1781547131230709,810840294,0.4430502951145172,0.20483003556728363,0.07770062237977982,0.8693181872367859,3.0682809352874756,3.086761951446533,9.2068510055542,0.6366485953330994,-2.3737339973449707,-6.434000492095947
1781547131465236,810856961,0.44354915618896484,0.20529326796531677,0.07809732109308243,0.868918776512146,3.046008586883545,3.1085007190704346,9.109747886657715,-0.14774687588214874,-1.5991675853729248,-5.792069435119629
1781547131466883,811056965,0.45683392882347107,0.2228456735610962,0.08105500787496567,0.8573638796806335,3.2649903297424316,3.369171380996704,9.024139404296875,1.7337727546691895,-22.145166397094727,-15.894515037536621
1781547131467689,811073632,0.4587874114513397,0.22521838545799255,0.08034498989582062,0.8557661175727844,3.295706272125244,3.3504104614257812,9.128673553466797,-2.2768714427948,-18.957857131958008,-15.409528732299805
1781547131705278,811090299,0.46057945489883423,0.22676309943199158,0.08113499730825424,0.8543199300765991,2.9943606853485107,3.204902410507202,9.214804649353027,4.103640079498291,-9.030229568481445,-16.761138916015625
1781547131706911,811306970,0.4870317280292511,0.2635711431503296,0.08852914720773697,0.8279451727867126,3.5502827167510986,3.7190492153167725,8.729400634765625,9.129398345947266,-17.868419647216797,-20.246307373046875
1781547131709398,811323637,0.4881652891635895,0.2661711871623993,0.08996547013521194,0.8262894153594971,3.377077341079712,3.688817024230957,8.706868171691895,12.395896911621094,-12.881507873535156,-14.308597564697266
1781547131945382,811340304,0.4886828362941742,0.26841968297958374,0.09113683551549911,0.8251268267631531,3.4280612468719482,3.979278326034546,8.596367835998535,10.533854484558105,-10.49158763885498,-8.88666820526123
1781547131947024,811540308,0.49869513511657715,0.2871355712413788,0.062494002282619476,0.8154453039169312,3.618466854095459,3.7048628330230713,8.608139991760254,-64.00397491455078,-36.28855895996094,8.66061019897461
1781547131949464,811556975,0.49905842542648315,0.28653591871261597,0.05147750303149223,0.8162035346031189,3.8364651203155518,3.579094409942627,8.588214874267578,-68.29890441894531,-32.27899932861328,20.76021385192871
1781547132185462,811573642,0.49871566891670227,0.28488704562187195,0.04069335013628006,0.8175979256629944,3.9313225746154785,3.8401477336883545,8.900554656982422,-69.42862701416016,-24.091489791870117,26.07625389099121
1781547132186572,811790313,0.47017157077789307,0.2862119674682617,0.009740574285387993,0.8348214626312256,4.845402240753174,2.9586901664733887,8.545892715454102,11.68791675567627,5.555708408355713,33.82005310058594
1781547132189410,811806980,0.4648233950138092,0.28593209385871887,0.015523853711783886,0.8378193378448486,4.950633525848389,3.148819923400879,8.64909553527832,39.175079345703125,27.36301612854004,27.693191528320312
1781547132425274,811823647,0.4614318907260895,0.28129416704177856,0.016516879200935364,0.8412380814552307,4.8219146728515625,3.0328352451324463,8.544830322265625,-6.238674163818359,37.776031494140625,26.718830108642578
1781547132427657,812023651,0.3898518979549408,0.2762908339500427,0.00035361212212592363,0.8784525990486145,5.056833744049072,1.9968087673187256,8.488956451416016,-11.150979042053223,-2.6500601768493652,16.870399475097656
1781547132429061,812040318,0.388846218585968,0.2757827043533325,-0.001776479883119464,0.8790560960769653,5.092652320861816,1.999859094619751,8.720096588134766,-15.750344276428223,-0.6924146413803101,10.43927001953125
1781547132667199,812056985,0.3893055319786072,0.2746037244796753,-0.004702060017734766,0.8792111277580261,4.989424705505371,1.9350755214691162,8.856368064880371,-25.13405418395996,0.4030359387397766,1.9016385078430176
1781547132667745,812256989,0.38571929931640625,0.2345028966665268,-0.031316064298152924,0.8917670845985413,2.785503625869751,0.6735869646072388,8.924418449401855,-8.550366401672363,-6.986452579498291,-19.165477752685547
1781547132669790,812273656,0.38537168502807617,0.23682880401611328,-0.031308356672525406,0.8913028240203857,4.428915977478027,1.2985972166061401,9.061263084411621,3.2484545707702637,-14.265669822692871,-0.9084831476211548
1781547132905483,812290323,0.38220492005348206,0.23869355022907257,-0.031669095158576965,0.8921557664871216,5.026852607727051,1.482122540473938,9.025951385498047,4.6425089836120605,-10.878655433654785,20.55681037902832
1781547132907618,812506994,0.23531155288219452,0.25305455923080444,-0.06176381930708885,0.9363638758659363,4.951931476593018,-0.17139926552772522,8.754302978515625,-10.85234260559082,-14.04297161102295,36.405391693115234
1781547132909723,812523661,0.2310434877872467,0.25519606471061707,-0.06321940571069717,0.9367482662200928,4.988020420074463,-0.12114168703556061,8.689203262329102,-1.7422207593917847,-16.502222061157227,28.423141479492188
1781547133145918,812540328,0.2271682769060135,0.2573443651199341,-0.06360924988985062,0.9370818734169006,4.983191967010498,-0.13229897618293762,8.736008644104004,4.420937538146973,-14.7724609375,23.93998146057129
1781547133146885,812740332,0.21700723469257355,0.3174022138118744,-0.051719654351472855,0.92167729139328,6.623537063598633,1.425638198852539,7.770458698272705,17.89511489868164,-14.73198413848877,10.894085884094238
1781547133149311,812756999,0.2133927047252655,0.32039597630500793,-0.05027594044804573,0.9215653538703918,6.272468566894531,0.9728152751922607,7.986286163330078,18.036069869995117,-17.569780349731445,17.21944236755371
1781547133385240,812773666,0.21472777426242828,0.32516199350357056,-0.0596536286175251,0.9190229773521423,4.83609676361084,0.6316173672676086,11.06286907196045,-59.676490783691406,-48.31874465942383,5.517314910888672
1781547133387276,812990337,0.21991996467113495,0.3239213526248932,-0.06190154328942299,0.9180841445922852,6.128974437713623,-0.07448533177375793,8.009173393249512,5.5368475914001465,6.28610897064209,-6.630990028381348
1781547133388878,813007004,0.22101539373397827,0.3221080005168915,-0.061013899743556976,0.9185184240341187,5.8069329261779785,-0.5074236989021301,8.29454517364502,-2.8179373741149902,14.991093635559082,-8.771794319152832
1781547133625404,813023671,0.22319693863391876,0.3192112445831299,-0.06115785613656044,0.9189925193786621,5.782789707183838,-0.6139112114906311,7.891125202178955,-13.365256309509277,20.807065963745117,-12.833036422729492
1781547133627135,813223675,0.2181631326675415,0.3167198598384857,-0.054264675825834274,0.9214927554130554,4.355930805206299,-1.251835584640503,7.7810821533203125,-11.346914291381836,16.37171745300293,-0.012037985026836395
1781547133629386,813240342,0.2246014028787613,0.3155624568462372,-0.05106133222579956,0.9205257296562195,6.210948467254639,0.0010882901260629296,8.246129989624023,0.7563180923461914,13.192758560180664,-50.09391403198242
1781547133655323,813257009,0.2301356941461563,0.3130486011505127,-0.049802642315626144,0.9200858473777771,6.232637882232666,0.9558219313621521,8.427434921264648,-11.498174667358398,19.60207176208496,-38.86476135253906
1781547133656900,813457013,0.24717488884925842,0.29881033301353455,-0.054678775370121,0.9201236367225647,5.806210517883301,0.4862326979637146,8.187089920043945,-10.312240600585938,-1.126984715461731,-0.7852216362953186
1781547133659243,813473680,0.2471410185098648,0.29899388551712036,-0.05597319081425667,0.9199952483177185,5.880148410797119,0.3656023442745209,8.372335433959961,-11.28388500213623,-2.8746554851531982,1.284778356552124
1781547133895313,813490347,0.24712669849395752,0.29868003726005554,-0.05721251666545868,0.9200246930122375,5.8233771324157715,0.29107213020324707,8.359992027282715,-11.759987831115723,0.6974149942398071,1.5078010559082031
1781547133897132,813507014,0.2471516877412796,0.2980867922306061,-0.058146629482507706,0.9201518297195435,5.813116550445557,0.31562694907188416,8.373557090759277,-10.346484184265137,3.1991491317749023,0.907221257686615
1781547133899522,813523681,0.24680936336517334,0.2974576950073242,-0.0582294836640358,0.9204421043395996,5.813362121582031,0.36117875576019287,8.269296646118164,-4.203454494476318,5.059910297393799,1.7781553268432617
1781547134135171,813540348,0.24548102915287018,0.2972729504108429,-0.05786583200097084,0.9208797812461853,5.792805194854736,0.36183059215545654,8.361750602722168,1.451375961303711,2.912337303161621,7.177736759185791
1781547134136656,813740352,0.2311924397945404,0.3067399561405182,-0.06600537896156311,0.9209256768226624,5.701366424560547,0.2689005136489868,8.032623291015625,3.01924467086792,7.462203502655029,-0.9842962026596069
1781547134137988,813757019,0.23056739568710327,0.3053531050682068,-0.06506795436143875,0.9216097593307495,5.599504470825195,0.3378145396709442,8.010946273803711,1.9278749227523804,12.19251537322998,2.396779775619507
1781547134375913,813773686,0.22967806458473206,0.303769588470459,-0.06445499509572983,0.9223979711532593,5.498883247375488,0.4108617603778839,8.02588939666748,0.1610591560602188,13.023432731628418,5.005627155303955
1781547134376802,813973690,0.21376530826091766,0.28805699944496155,-0.056183457374572754,0.9317570924758911,5.72235631942749,8.040061220526695e-05,8.374074935913086,3.7528607845306396,15.59294605255127,9.047895431518555
1781547134378444,813990357,0.21252503991127014,0.28589868545532227,-0.05518583953380585,0.9327645301818848,5.77992057800293,0.0961291640996933,8.232701301574707,2.6311895847320557,17.563207626342773,6.986135005950928
1781547134615183,814007024,0.21139593422412872,0.2841009199619293,-0.054537881165742874,0.9336080551147461,5.652407169342041,0.14228688180446625,8.15751838684082,0.6354836225509644,14.460833549499512,6.585575103759766
1781547134616968,814207028,0.19935035705566406,0.2795288860797882,-0.054937172681093216,0.9376060366630554,5.318258285522461,0.04215921461582184,8.490119934082031,0.5360289812088013,0.890649676322937,7.297129154205322
1781547134618586,814223695,0.19772978127002716,0.27939221262931824,-0.05488908290863037,0.9379926323890686,5.42483377456665,-0.008283116854727268,8.450495719909668,-0.05113577842712402,1.8309180736541748,9.640080451965332
1781547134855744,814240362,0.19594591856002808,0.2791982591152191,-0.05498415231704712,0.9384191036224365,5.42735481262207,-0.0309225395321846,8.409914016723633,-0.7238920331001282,2.020106554031372,11.04360580444336
1781547134857525,814457033,0.16133150458335876,0.27322715520858765,-0.07186700403690338,0.9455973505973816,5.378986835479736,-0.5588486194610596,8.55427074432373,-6.222473621368408,0.6938810348510742,19.549402236938477
1781547134859302,814473700,0.1567467451095581,0.2721312344074249,-0.07315407693386078,0.9465852975845337,4.984775066375732,-0.4325338900089264,8.740782737731934,-3.9197192192077637,6.036431312561035,32.567466735839844
1781547135095154,814490367,0.1529323011636734,0.2711731195449829,-0.07532992213964462,0.9473132491111755,5.147377967834473,-0.6858735680580139,8.463774681091309,-11.129100799560547,4.0801100730896,28.86768913269043
1781547135099662,814690371,0.13309837877750397,0.25793465971946716,-0.08458946645259857,0.953204870223999,4.929497241973877,-1.4180333614349365,8.152522087097168,-3.5803394317626953,43.4287223815918,-22.48041534423828
1781547135100066,814707038,0.13949784636497498,0.24871748685836792,-0.08326687663793564,0.9548543691635132,4.841854572296143,-1.3392956256866455,8.693013191223145,-13.594532012939453,69.00841522216797,-38.71208190917969
1781547135335238,814723705,0.14735394716262817,0.23806875944137573,-0.0824393704533577,0.9564591646194458,4.805089950561523,-1.0772104263305664,8.659873008728027,-20.73222541809082,78.68984985351562,-46.651641845703125
1781547135337312,814940376,0.16503266990184784,0.19848093390464783,-0.05087655037641525,0.9647700786590576,4.0110392570495605,-0.41226738691329956,9.399508476257324,21.084413528442383,7.496462345123291,-10.980097770690918
1781547135338709,814957043,0.1657971888780594,0.1995837241411209,-0.048843227326869965,0.9645166397094727,3.943138599395752,-0.279369056224823,9.325399398803711,10.169817924499512,-4.339767932891846,-9.806008338928223
1781547135575629,814973710,0.1658587008714676,0.2020563781261444,-0.04868977144360542,0.9639987945556641,4.029987812042236,-0.1623896360397339,9.360480308532715,0.14033851027488708,-16.165664672851562,-3.327336549758911
1781547135577263,815173714,0.09890955686569214,0.17893008887767792,-0.047345444560050964,0.9777318239212036,3.5793371200561523,-0.6956343054771423,9.319108963012695,-4.7628655433654785,13.09814453125,41.025146484375
1781547135578839,815190381,0.09343641251325607,0.1768118441104889,-0.048368699848651886,0.9786049723625183,3.3172030448913574,-0.908787190914154,9.509472846984863,-4.745010852813721,13.581847190856934,38.0509033203125
1781547135815085,815207048,0.08954966813325882,0.17581620812416077,-0.04913618043065071,0.9791094064712524,2.959423542022705,-1.1215546131134033,9.421818733215332,-4.353734970092773,6.271356582641602,26.45652198791504
1781547135816833,815407052,0.05880016088485718,0.19509544968605042,-0.08770819753408432,0.9750835299491882,3.876194477081299,-1.356435775756836,9.333313941955566,-34.83114242553711,-20.209192276000977,34.11937713623047
1781547135817676,815423719,0.054797396063804626,0.19768670201301575,-0.09274978190660477,0.9743279218673706,3.873079299926758,-1.5454398393630981,9.117411613464355,-31.286073684692383,-22.1003475189209,30.439773559570312
1781547136055143,815440386,0.05108403041958809,0.20066329836845398,-0.0978168323636055,0.9734253287315369,3.9481546878814697,-1.70448637008667,9.154172897338867,-31.798540115356445,-24.706579208374023,28.234878540039062
1781547136057959,815657057,0.03338247910141945,0.2082837074995041,-0.12298691272735596,0.9697308540344238,4.0883564949035645,-2.375380277633667,8.924895286560059,-0.9117099642753601,8.675825119018555,0.1328595131635666
1781547136058903,815673724,0.03346792981028557,0.20694755017757416,-0.12264226377010345,0.9700575470924377,3.9775400161743164,-2.3557913303375244,8.975044250488281,-1.3063377141952515,10.263378143310547,-1.1518291234970093
1781547136295119,815690391,0.03368830308318138,0.20566195249557495,-0.12241306900978088,0.9703522324562073,3.83365797996521,-2.318606376647949,8.974040031433105,-2.283308982849121,9.967307090759277,-1.9366154670715332
1781547136296170,815890395,0.03786977380514145,0.19002339243888855,-0.11431884765625,0.9743656516075134,3.5992674827575684,-2.1899476051330566,9.038636207580566,7.324709415435791,17.92568016052246,-2.095223903656006
1781547136298033,815907062,0.03821471706032753,0.18735019862651825,-0.11257780343294144,0.9750722646713257,3.5295891761779785,-2.1276750564575195,9.088043212890625,7.621461391448975,20.290151596069336,-3.5907909870147705
1781547136355128,815923729,0.03992485627532005,0.18464817106723785,-0.11023180186748505,0.9757870435714722,2.9558725357055664,-2.434128522872925,8.903117179870605,9.916847229003906,21.709028244018555,-13.499310493469238
1781547136357051,816140400,0.05598984286189079,0.1698756217956543,-0.09779208898544312,0.9790017604827881,3.484557867050171,-1.8007029294967651,9.353033065795898,-5.946770668029785,1.8069827556610107,-4.297901153564453
1781547136358905,816157067,0.0565464124083519,0.1699647307395935,-0.09805016219615936,0.9789283871650696,3.446397304534912,-1.7994799613952637,9.306746482849121,-5.851773262023926,0.32266244292259216,-4.823396682739258
1781547136595135,816173734,0.05730085447430611,0.16983802616596222,-0.09816054254770279,0.9788954854011536,3.4305691719055176,-1.8155725002288818,9.299394607543945,-5.144721984863281,2.0129475593566895,-6.163505554199219
1781547136597197,816190401,0.058265019208192825,0.1699521839618683,-0.09824194014072418,0.9788106083869934,3.3945729732513428,-1.7614697217941284,9.307160377502441,-5.1346564292907715,0.4844323992729187,-7.792551040649414
1781547136599141,816207068,0.059234194457530975,0.17049932479858398,-0.09813946485519409,0.9786675572395325,3.456141233444214,-1.7662162780761719,9.303277015686035,-3.769294261932373,-2.4199910163879395,-8.356760025024414
1781547136836440,816223735,0.06021903082728386,0.17102307081222534,-0.09760187566280365,0.978569746017456,3.453396797180176,-1.8403953313827515,9.424365997314453,-0.8386111855506897,-2.0215466022491455,-8.939116477966309
1781547136836927,816440406,0.07686534523963928,0.18327802419662476,-0.0873887836933136,0.9761475324630737,3.3944432735443115,-1.12594735622406,8.85283088684082,-6.642975807189941,-7.577290058135986,-5.074172019958496
1781547137075319,816457073,0.07685444504022598,0.18432551622390747,-0.08827849477529526,0.9758711457252502,3.3982460498809814,-1.1571836471557617,8.90133285522461,-9.017646789550781,-7.117657661437988,-0.8699356913566589
1781547137077664,816473740,0.0764496847987175,0.18382912874221802,-0.08782986551523209,0.9760370850563049,3.2251486778259277,-1.2696466445922852,9.231582641601562,-0.08692950755357742,4.269284725189209,1.2492657899856567
1781547137079896,816673744,0.0586000494658947,0.18348555266857147,-0.053776029497385025,0.9797996282577515,3.2504796981811523,-0.998302698135376,9.090731620788574,38.237064361572266,3.6210978031158447,3.8784806728363037
1781547137315593,816690411,0.05634073168039322,0.18215496838092804,-0.04700480028986931,0.9805284142494202,3.618830442428589,-0.6305457353591919,9.192813873291016,44.746971130371094,12.511059761047363,6.181076526641846
1781547137317457,816707078,0.05497652292251587,0.17829737067222595,-0.03915688768029213,0.9816590547561646,3.0056979656219482,-0.7757629156112671,8.67763900756836,50.035003662109375,30.7570858001709,-0.2283143848180771
1781547137319299,816907082,0.01731504313647747,0.2042405754327774,-0.0334978885948658,0.9781944751739502,4.833461761474609,0.6084827780723572,9.435976028442383,-61.68022155761719,-98.8403549194336,75.42916870117188
1781547137555107,816923749,0.0067611378617584705,0.215567946434021,-0.043442923575639725,0.975498616695404,4.414303302764893,0.09087569266557693,8.58607292175293,-54.817840576171875,-82.83357238769531,80.75017547607422
1781547137557291,817157087,-0.0979173481464386,0.061133649200201035,0.01966392807662487,0.9931204915046692,1.3935682773590088,0.403064489364624,9.891759872436523,64.9502944946289,20.596433639526367,49.250484466552734
1781547137558091,817173754,-0.10640574991703033,0.056586720049381256,0.026923587545752525,0.9923461675643921,0.8317981362342834,0.5215885043144226,10.828493118286133,52.80595397949219,27.73602294921875,53.550716400146484
1781547137795327,817190421,-0.1149853765964508,0.05521487072110176,0.031719792634248734,0.9913241267204285,0.20044159889221191,0.32745057344436646,11.234405517578125,33.75566101074219,7.794581413269043,55.901710510253906
1781547137797117,817390425,-0.21789690852165222,0.09245195239782333,0.16782887279987335,0.9569781422615051,2.2598235607147217,2.394458293914795,9.513469696044922,86.21597290039062,14.854500770568848,43.363094329833984
1781547137798902,817407092,-0.22465525567531586,0.08635552227497101,0.1748199760913849,0.9547306895256042,2.0035295486450195,2.4401581287384033,9.329983711242676,58.52056121826172,36.76527786254883,35.104095458984375
1781547138035277,817423759,-0.23119448125362396,0.07885205745697021,0.17656147480010986,0.9534977078437805,2.057379961013794,2.535261392593384,8.374055862426758,24.88540267944336,54.447750091552734,33.522056579589844
1781547138037765,817640430,-0.28016602993011475,0.05177386477589607,0.20164060592651367,0.9371059536933899,1.3224784135818481,3.1770875453948975,9.536974906921387,34.909732818603516,-14.716288566589355,17.460540771484375
1781547138040447,817657097,-0.28140804171562195,0.05048976466059685,0.2088293433189392,0.9352277517318726,0.8070944547653198,2.70436429977417,8.872974395751953,48.34481430053711,-3.7820990085601807,6.035158634185791
1781547138275121,817673764,-0.281080961227417,0.04538741335272789,0.21755024790763855,0.9335981011390686,0.4478110373020172,2.6865949630737305,8.664761543273926,64.68484497070312,15.63568115234375,-10.55107593536377
1781547138277071,817873768,-0.21650923788547516,-0.012893643230199814,0.34642738103866577,0.9126585125923157,0.6877375841140747,6.066098213195801,6.345675468444824,38.797603607177734,-16.087156295776367,-15.340591430664062
1781547138278553,817890435,-0.21419692039489746,-0.014069531112909317,0.3543901741504669,0.9101260304450989,0.5701344013214111,5.218194007873535,7.663160800933838,54.499324798583984,-9.031743049621582,-14.058114051818848
1781547138515751,817907102,-0.20793300867080688,-0.013121911324560642,0.366009384393692,0.9069889783859253,-0.04591170698404312,5.479532241821289,5.648411273956299,76.11193084716797,-37.27552032470703,-32.365901947021484
1781547138517222,818107106,-0.20889803767204285,-0.038121696561574936,0.15016135573387146,0.9655879735946655,-0.5102106928825378,3.9234695434570312,8.637784957885742,-522.4773559570312,47.85478973388672,-10.674156188964844
1781547138518849,818123773,-0.21218259632587433,-0.007070800289511681,0.017361771315336227,0.9770503640174866,0.79140704870224,1.8596465587615967,10.01460075378418,-945.2942504882812,-14.355433464050293,1.3452073335647583
1781547138755278,818140440,-0.20535863935947418,-0.008630055002868176,0.02014700509607792,0.9784414768218994,-5.930133819580078,0.6886749863624573,6.484305381774902,17.716432571411133,6.242560863494873,-49.18604278564453
1781547138757451,818357111,-0.20645147562026978,-0.00608621072024107,0.014450499787926674,0.9783313274383545,-0.17409677803516388,0.20718693733215332,10.180402755737305,-3.463387966156006,0.7502791881561279,-1.2226479053497314
1781547138759946,818373778,-0.20644934475421906,-0.006091594230383635,0.014438817277550697,0.9783319234848022,-0.1723887175321579,0.19784870743751526,10.163763046264648,-3.504124879837036,0.7490754723548889,-1.2828761339187622
1781547138995783,818390445,-0.20644843578338623,-0.0061005474999547005,0.0144405672326684,0.978331983089447,-0.16498440504074097,0.19457799196243286,10.176448822021484,-3.4085896015167236,0.7540571689605713,-1.2732714414596558
1781547138997273,818590449,-0.2064540684223175,-0.006248043850064278,0.014353564009070396,0.9783312082290649,-0.17758478224277496,0.20449689030647278,10.17350959777832,-3.3741915225982666,0.7453359961509705,-1.2783554792404175
1781547138999785,818607116,-0.20644870400428772,-0.0062598916701972485,0.01434240024536848,0.9783323407173157,-0.1847536861896515,0.19097578525543213,10.191858291625977,-3.4894235134124756,0.7921432852745056,-1.3045061826705933
1781547139235698,818623783,-0.20645229518413544,-0.006274558138102293,0.014341292902827263,0.9783315658569336,-0.17926831543445587,0.19565318524837494,10.185660362243652,-3.4179766178131104,0.7977908253669739,-1.241524577140808
1781547139237157,818840454,-0.09430518001317978,-0.00948321633040905,0.014966449700295925,0.9953857660293579,-0.09388208389282227,0.23012444376945496,10.183692932128906,-2.5263795852661133,0.31427669525146484,-47.22626876831055
1781547139238579,818857121,-0.08700224757194519,-0.009573513641953468,0.014940010383725166,0.9960501194000244,-0.5215110778808594,0.05072610080242157,10.153030395507812,-3.1251885890960693,0.550492525100708,-51.68769454956055
1781547139476590,818873788,-0.07390032708644867,-0.009794260375201702,0.014977972023189068,0.9971051812171936,-0.2762184143066406,0.19126245379447937,10.168971061706543,-2.2625133991241455,0.784482479095459,-91.64576721191406
1781547139477104,819073792,0.023055976256728172,-0.011333753354847431,0.01548575609922409,0.9995501637458801,-0.107315294444561,0.26116785407066345,10.159236907958984,-3.1197681427001953,0.789543628692627,-2.1643760204315186
1781547139478964,819090459,0.022534137591719627,-0.011392591521143913,0.01543874479830265,0.9995620846748352,-0.2194972187280655,0.14787468314170837,10.171475410461426,-3.769869565963745,1.1860922574996948,2.314357280731201
1781547139715304,819107126,0.022559404373168945,-0.01140385027974844,0.015464811585843563,0.9995609521865845,-0.48522505164146423,0.1684832125902176,10.211085319519043,-3.216071128845215,0.8135809302330017,-1.4383066892623901
1781547139716858,819307130,0.01995960809290409,-0.011361746117472649,0.015383834019303322,0.9996180534362793,-0.2106458991765976,0.2031271755695343,10.17869758605957,-3.428541421890259,0.6666409373283386,-1.2556753158569336
1781547139718701,819323797,0.019951293244957924,-0.011354374699294567,0.01536021288484335,0.9996185898780823,-0.19467712938785553,0.20779743790626526,10.181001663208008,-3.5597176551818848,0.6827514171600342,-1.209214210510254
1781547139955318,819340464,0.019923048093914986,-0.011329456232488155,0.0153465261682868,0.9996196627616882,-0.2282923310995102,0.18654115498065948,10.183195114135742,-3.490511417388916,0.5658420920372009,-1.0702650547027588
1781547139957719,819557135,0.006437404081225395,-0.010720012709498405,0.014433592557907104,0.9998178482055664,-0.3795100450515747,0.06514175236225128,10.16524887084961,-3.901916265487671,0.9142774939537048,8.9933443069458
1781547139960140,819573802,0.0069463374093174934,-0.010824738070368767,0.01480402797460556,0.9998078942298889,-0.11768864095211029,0.21139143407344818,10.146238327026367,-0.8184410333633423,1.4237908124923706,-4.75083589553833
1781547140195078,819590469,0.008282654918730259,-0.010363363660871983,0.01604556292295456,0.9997833967208862,-0.49200737476348877,-0.09829339385032654,10.13254165649414,5.259564399719238,-2.508227586746216,-10.313791275024414
1781547140196842,819790473,0.03241576626896858,-0.011697403155267239,0.015285302884876728,0.999289333820343,-0.07028209418058395,0.2834116220474243,10.200048446655273,-3.887356996536255,0.7823083996772766,-12.236601829528809
1781547140199554,819807140,0.032759953290224075,-0.011711501516401768,0.01524105854332447,0.9992786645889282,-0.20955073833465576,0.19857390224933624,10.195884704589844,-3.6768062114715576,0.7985848784446716,-3.6390910148620605
1781547140435380,819823807,0.033415768295526505,-0.01168937049806118,0.015168273821473122,0.9992582201957703,-0.21533529460430145,0.23490765690803528,10.188148498535156,-3.8383967876434326,0.5117226839065552,-5.782760143280029
1781547140438521,820040478,0.044395312666893005,-0.011175368912518024,0.015855159610509872,0.9988257884979248,-0.18041132390499115,0.22016197443008423,10.182894706726074,-4.52682638168335,1.5504071712493896,-1.307297706604004
1781547140441562,820057145,0.044400654733181,-0.011285582557320595,0.015702705830335617,0.9988267421722412,-0.18560464680194855,0.22728478908538818,10.179732322692871,-4.479392051696777,1.4629395008087158,-1.326161503791809
1781547140675258,820073812,0.04440067708492279,-0.011377282440662384,0.015577682293951511,0.9988276958465576,-0.18888907134532928,0.21295224130153656,10.201704025268555,-4.285760402679443,1.345018982887268,-1.2844771146774292
1781547140676622,820273816,0.044357188045978546,-0.01173121016472578,0.015116988681256771,0.9988325238227844,-0.2119186967611313,0.19004559516906738,10.204931259155273,-3.4437170028686523,0.8059995770454407,-1.2473256587982178
1781547140678417,820290483,0.04434783011674881,-0.01173371821641922,0.015097533352673054,0.998833179473877,-0.2010936588048935,0.20508773624897003,10.189144134521484,-3.535590410232544,0.7696681618690491,-1.202478051185608
1781547140915766,820307150,0.044345300644636154,-0.01172779779881239,0.015086360275745392,0.9988335371017456,-0.1868438869714737,0.19841361045837402,10.172393798828125,-3.4754130840301514,0.7138451933860779,-1.247697114944458
1781547140917763,820507154,0.04432833567261696,-0.011783578433096409,0.014988278038799763,0.9988352060317993,-0.1935819387435913,0.21555134654045105,10.18895149230957,-3.490921974182129,0.8125181794166565,-1.2815957069396973
1781547140919574,820523821,0.044324904680252075,-0.01178835704922676,0.014970238320529461,0.998835563659668,-0.1795063465833664,0.20084455609321594,10.19952392578125,-3.5276246070861816,0.7893514633178711,-1.242382526397705
1781547141155304,820540488,0.044332291930913925,-0.011790014803409576,0.014955992810428143,0.9988354444503784,-0.1827768087387085,0.2143847793340683,10.193352699279785,-3.50003981590271,0.7684770822525024,-1.3186442852020264
1781547141158244,820757159,0.04431680217385292,-0.011871416121721268,0.014832336455583572,0.9988369941711426,-0.18670064210891724,0.2163372039794922,10.154479026794434,-3.476386308670044,0.8455713391304016,-1.2706589698791504
1781547141160184,820773826,0.04431306943297386,-0.011863647028803825,0.014821276068687439,0.998837411403656,-0.2052336484193802,0.21989187598228455,10.20284652709961,-3.4780256748199463,0.7095550894737244,-1.2393730878829956
1781547141395161,820790493,0.04430888965725899,-0.011874852702021599,0.014799327589571476,0.9988378286361694,-0.18503610789775848,0.21014201641082764,10.167384147644043,-3.5587573051452637,0.8367990851402283,-1.2402952909469604
1781547141397982,820990497,0.0442814975976944,-0.011886173859238625,0.01468709111213684,0.9988406300544739,-0.20009183883666992,0.2083016186952591,10.16730785369873,-3.4645020961761475,0.7977907657623291,-1.3291454315185547
1781547141399963,821007164,0.044277455657720566,-0.01188591681420803,0.014677139930427074,0.998840868473053,-0.17986322939395905,0.1997949779033661,10.176651954650879,-3.4742984771728516,0.7649680376052856,-1.2402565479278564
1781547141635279,821023831,0.044283635914325714,-0.011887717992067337,0.01466373261064291,0.9988407492637634,-0.1998876929283142,0.22755002975463867,10.193467140197754,-3.4975428581237793,0.7773135304450989,-1.3129968643188477
1781547141638338,821223835,0.044278424233198166,-0.011930258944630623,0.014545016922056675,0.998842179775238,-0.18950004875659943,0.21646463871002197,10.201805114746094,-3.406886339187622,0.8201122283935547,-1.3141363859176636
1781547141640480,821240502,0.04426698014140129,-0.011925819329917431,0.014540639705955982,0.9988428354263306,-0.1941024661064148,0.21761004626750946,10.177301406860352,-3.4370834827423096,0.7422240972518921,-1.1873279809951782
1781547141875286,821257169,0.04426628723740578,-0.01192955020815134,0.014528005383908749,0.9988430738449097,-0.18114617466926575,0.20983190834522247,10.197458267211914,-3.495492935180664,0.7949477434158325,-1.264025092124939
1781547141877836,821473840,0.04421661049127579,-0.011997022666037083,0.014415524899959564,0.9988459944725037,-0.1960740089416504,0.21244356036186218,10.175270080566406,-3.4649758338928223,0.8489521741867065,-1.2089195251464844
1781547141879323,821490507,0.04421496018767357,-0.012006212957203388,0.014417569153010845,0.9988458752632141,-0.20046500861644745,0.21736349165439606,10.190818786621094,-3.3982672691345215,0.8403847217559814,-1.2572764158248901
1781547142115297,821507174,0.04421328380703926,-0.01200694777071476,0.014414416626095772,0.9988459348678589,-0.19653888046741486,0.2176077961921692,10.170604705810547,-3.4312567710876465,0.7808608412742615,-1.2562389373779297
1781547142118598,821707178,0.044190265238285065,-0.012057430110871792,0.014330200850963593,0.9988476037979126,-0.19181972742080688,0.22500592470169067,10.164956092834473,-3.4827382564544678,0.743171751499176,-1.2212392091751099
1781547142120200,821723845,0.04418404772877693,-0.012058377265930176,0.014320573769509792,0.998848021030426,-0.18896065652370453,0.22599352896213531,10.192155838012695,-3.4782562255859375,0.7836334109306335,-1.225093960762024
1781547142355259,821740512,0.04418257996439934,-0.012048626318573952,0.014312348328530788,0.9988483190536499,-0.1832347810268402,0.2102435976266861,10.18589973449707,-3.465385675430298,0.7103233933448792,-1.2563798427581787
1781547142357522,821957183,0.04419484734535217,-0.012086793780326843,0.014196895062923431,0.9988489151000977,-0.2014838308095932,0.20325380563735962,10.195321083068848,-3.5415453910827637,0.8006851673126221,-1.2848740816116333
1781547142359210,821973850,0.04419059306383133,-0.012082972563803196,0.014188970439136028,0.9988493919372559,-0.19776883721351624,0.19860857725143433,10.167595863342285,-3.466935396194458,0.7541851997375488,-1.238976001739502
1781547142595407,821990517,0.044184908270835876,-0.012075794860720634,0.014180852100253105,0.9988498687744141,-0.19126641750335693,0.20468932390213013,10.189590454101562,-3.4677164554595947,0.7315563559532166,-1.2280265092849731
1781547142597759,822190521,0.044165559113025665,-0.012135259807109833,0.014105122536420822,0.9988510012626648,-0.1817762553691864,0.21002157032489777,10.180920600891113,-3.422266721725464,0.7673629522323608,-1.2412683963775635
1781547142600041,822207188,0.044167157262563705,-0.012146258726716042,0.014097451232373714,0.9988510608673096,-0.19493368268013,0.2197069674730301,10.181962013244629,-3.4709436893463135,0.8581599593162537,-1.278470754623413
1781547142835070,822223855,0.04417526349425316,-0.012153903022408485,0.014097949489951134,0.9988505244255066,-0.19208960235118866,0.20503728091716766,10.207967758178711,-3.4135329723358154,0.8370038270950317,-1.3253676891326904
1781547142836475,822440526,0.04414612054824829,-0.012189184315502644,0.014007959514856339,0.9988526701927185,-0.19514138996601105,0.21535441279411316,10.162317276000977,-3.5416605472564697,0.7973554730415344,-1.2280778884887695
1781547142837675,822457193,0.044141098856925964,-0.012192897498607635,0.01400130707770586,0.9988529682159424,-0.19654710590839386,0.22616428136825562,10.200522422790527,-3.4648351669311523,0.8115448355674744,-1.236261010169983
1781547143075500,822473860,0.04413226991891861,-0.012190212495625019,0.014000958763062954,0.9988533854484558,-0.19186726212501526,0.21341943740844727,10.189226150512695,-3.420243263244629,0.7702187895774841,-1.2052440643310547
1781547143079502,822673864,0.04411650449037552,-0.012228414416313171,0.01389313954859972,0.9988550543785095,-0.1929970681667328,0.2164985090494156,10.185349464416504,-3.4554224014282227,0.7942178845405579,-1.213478684425354
1781547143079975,822690531,0.044116828590631485,-0.012225167825818062,0.013884537853300571,0.9988552331924438,-0.18959887325763702,0.21997737884521484,10.186269760131836,-3.4777309894561768,0.7650322914123535,-1.2702234983444214
1781547143315087,822707198,0.04412846639752388,-0.012256522662937641,0.013415570370852947,0.9988607168197632,-0.3625892698764801,0.1104377955198288,10.23880672454834,-6.649275779724121,0.8614384531974792,-1.3895275592803955
1781547143317026,822907202,0.09984547644853592,0.018568845465779305,0.028934882953763008,0.994408905506134,0.1030290275812149,-0.6028130650520325,10.695398330688477,88.8919906616211,-78.2220687866211,-8.1235990524292
1781547143318767,822923869,0.09904658794403076,0.03605136275291443,0.03462746739387512,0.9938266277313232,-0.28713756799697876,-0.35750699043273926,12.402451515197754,47.71702194213867,-114.7374496459961,6.543191909790039
1781547143555195,822940536,0.10420718044042587,0.053326912224292755,0.03413296863436699,0.9925383925437927,0.44225162267684937,0.6037463545799255,13.676614761352539,3.9915130138397217,-119.13262176513672,-33.17998504638672
1781547143557285,823157207,0.14314913749694824,0.0573892742395401,0.025218896567821503,0.9877141118049622,2.343170642852783,0.9373424053192139,19.472623825073242,-94.02091979980469,104.4419174194336,2.2134690284729004
1781547143578679,823173874,0.13628122210502625,0.06634672731161118,0.008243906311690807,0.9884118437767029,1.2153124809265137,2.5642597675323486,15.097905158996582,-107.29259490966797,-75.26716613769531,54.303775787353516
1781547143795040,823190541,0.12927007675170898,0.07058200240135193,-0.0033289091661572456,0.9890888333320618,0.9726719260215759,1.8525034189224243,10.716277122497559,-74.93921661376953,-38.114654541015625,52.52413558959961
1781547143797451,823390545,0.10026226937770844,0.09945674240589142,0.0005354710156098008,0.9899777173995972,1.1497118473052979,1.2822108268737793,9.99010944366455,-24.3813419342041,-55.838294982910156,17.744247436523438
1781547143799142,823407212,0.09937842935323715,0.10547851026058197,0.002539037261158228,0.9894403219223022,1.0845040082931519,0.9080536961555481,7.40512228012085,14.96456241607666,-39.17402267456055,3.020671844482422
1781547144035712,823423879,0.09989720582962036,0.1089959442615509,0.007329258602112532,0.9889828562736511,1.6541109085083008,0.38442522287368774,7.180377006530762,31.19002914428711,-20.201208114624023,-8.532709121704102
1781547144037568,823640550,0.12846703827381134,0.11709918826818466,0.031485285609960556,0.9842728972434998,1.3665961027145386,1.9446914196014404,7.341075420379639,-28.0902156829834,-39.22514343261719,51.039825439453125
1781547144041820,823657217,0.12340995669364929,0.12230246514081955,0.029738979414105415,0.9843414425849915,2.2687716484069824,0.831667959690094,8.679561614990234,-6.598838806152344,-34.80604934692383,35.536075592041016
1781547144276246,823673884,0.11841710656881332,0.12728433310985565,0.02793150395154953,0.984376072883606,2.591278076171875,0.8133567571640015,10.011465072631836,-7.24808406829834,-33.401084899902344,35.079010009765625
1781547144276784,823873888,0.11433441191911697,0.14902770519256592,0.03067944012582302,0.9817219376564026,2.7714593410491943,1.3616063594818115,10.068628311157227,-140.99546813964844,-76.60934448242188,106.59336853027344
1781547144278575,823890555,0.10536915063858032,0.15720877051353455,0.01664387807250023,0.9817875027656555,2.4456188678741455,2.3108885288238525,7.44685173034668,-82.57148742675781,-63.504756927490234,75.3943862915039
1781547144515210,823907222,0.1015114039182663,0.16434091329574585,0.01760643720626831,0.981008768081665,2.7606875896453857,1.0242863893508911,7.28391695022583,12.484560012817383,-47.05290985107422,23.969106674194336
1781547144516841,824107226,0.12214910984039307,0.15764175355434418,0.015604174695909023,0.9797888398170471,2.9738545417785645,2.744964599609375,11.371623039245605,-70.0645751953125,-70.41536712646484,65.82605743408203
1781547144518063,824123893,0.11669076979160309,0.16643433272838593,0.016402369365096092,0.9789865016937256,2.5550825595855713,1.9761698246002197,8.993765830993652,15.325983047485352,-58.051307678222656,34.892818450927734
1781547144755207,824140560,0.11637700349092484,0.17266476154327393,0.028144491836428642,0.9776768684387207,2.4580225944519043,0.5826981663703918,6.312073230743408,81.10172271728516,-33.187625885009766,-12.954174041748047
1781547144757806,824357231,0.16517218947410583,0.1987772434949875,0.08132191002368927,0.9625971913337708,3.919478416442871,0.3851010501384735,7.629232406616211,-7.009690284729004,-5.165397644042969,-41.88096618652344
1781547144759729,824373898,0.16922570765018463,0.19528231024742126,0.0799218937754631,0.9627258777618408,3.857383966445923,0.4729076623916626,6.8048295974731445,-22.284793853759766,20.24942398071289,-28.00629425048828
1781547144995233,824390565,0.17376267910003662,0.18865622580051422,0.07672540843486786,0.9634987115859985,3.3966317176818848,0.5504254102706909,6.567033767700195,-38.821224212646484,39.486785888671875,-29.76909637451172
1781547144997454,824590569,0.1991749405860901,0.15551969408988953,0.08741908520460129,0.9635883569717407,2.7844841480255127,1.8073362112045288,9.113490104675293,18.239124298095703,9.538372039794922,-9.838777542114258
1781547145000247,824607236,0.20044593513011932,0.1539776623249054,0.09099777787923813,0.963240921497345,2.6041834354400635,1.8842248916625977,8.789752960205078,17.009235382080078,14.783116340637207,-14.934340476989746
1781547145235053,824623903,0.20219935476779938,0.15150900185108185,0.09334877133369446,0.9630411267280579,2.5302560329437256,2.2630648612976074,8.930023193359375,6.99894905090332,19.082576751708984,-17.20543670654297
1781547145237069,824840574,0.1885157823562622,0.13989970088005066,0.0012218545889481902,0.9720549583435059,2.7524642944335938,0.8207966089248657,10.73055362701416,-122.91280364990234,-29.930500030517578,51.62162780761719
1781547145239065,824857241,0.18258334696292877,0.14099447429180145,-0.018558671697974205,0.9728524088859558,2.523395538330078,0.7782115340232849,9.371381759643555,-128.52203369140625,-31.338008880615234,58.43961715698242
1781547145475791,824873908,0.17799022793769836,0.14304004609584808,-0.030962418764829636,0.9730892777442932,2.3398191928863525,0.6554980874061584,8.975851058959961,-79.35128021240234,-28.80947494506836,41.5029411315918
1781547145477275,825073912,0.17098219692707062,0.15090958774089813,0.02670162357389927,0.9732835292816162,3.4048562049865723,0.4471919536590576,11.567564964294434,154.24534606933594,53.0074348449707,-77.72957611083984
1781547145478696,825090579,0.17603296041488647,0.14990586042404175,0.04708418995141983,0.9717644453048706,3.501528263092041,1.3250982761383057,12.632527351379395,126.82023620605469,28.975046157836914,-58.19853210449219
1781547145715026,825107246,0.17778608202934265,0.15147452056407928,0.06326551735401154,0.9702820181846619,3.059218406677246,2.196420669555664,11.752668380737305,105.2467269897461,7.806668281555176,-30.95816421508789
1781547145716064,825307250,0.12550482153892517,0.18305401504039764,-0.06273650377988815,0.9730395078659058,3.763052225112915,-2.2053439617156982,10.110038757324219,211.16114807128906,80.31932830810547,-166.07142639160156
1781547145718031,825323917,0.14493077993392944,0.1792169064283371,-0.026274774223566055,0.9727219939231873,4.204920768737793,-0.361227810382843,11.779906272888184,212.65631103515625,65.92619323730469,-175.80030822753906
1781547145955078,825340584,0.1632385104894638,0.17740526795387268,0.007761445362120867,0.9704753756523132,3.304450273513794,1.7525075674057007,10.36876106262207,199.47064208984375,47.377498626708984,-167.61190795898438
1781547145957437,825557255,0.14840863645076752,0.17751358449459076,-0.013569637201726437,0.9727699756622314,2.8203225135803223,-1.415749192237854,8.163543701171875,180.22482299804688,90.84105682373047,-146.99984741210938
1781547145958757,825573922,0.17095151543617249,0.16777046024799347,0.020756157115101814,0.9706695079803467,3.067326545715332,-0.11604073643684387,9.607179641723633,188.54122924804688,100.55361938476562,-195.2358856201172
1781547146197161,825590589,0.1969243437051773,0.15902698040008545,0.05154969170689583,0.9660618305206299,3.3182003498077393,1.394242763519287,10.99094009399414,162.5363311767578,86.34418487548828,-216.8611602783203
1781547146197690,825790593,0.35799482464790344,0.11040898412466049,0.07246467471122742,0.9243374466896057,1.4562501907348633,2.443603038787842,9.02867317199707,-40.863643646240234,24.282386779785156,-111.54817962646484
1781547146198998,825807260,0.3735088109970093,0.10308677703142166,0.06941429525613785,0.9192646741867065,1.4920659065246582,2.183727502822876,9.417186737060547,-50.112152099609375,28.253520965576172,-113.69466400146484
1781547146435193,825823927,0.3875248432159424,0.0949934795498848,0.06504442542791367,0.9146429300308228,1.6043154001235962,1.760628342628479,9.344780921936035,-59.586639404296875,30.773988723754883,-102.500732421875
1781547146437121,826040598,0.449289470911026,0.035540543496608734,0.016004113480448723,0.892536461353302,0.5435094833374023,0.9664262533187866,10.051787376403809,-40.487918853759766,1.6554926633834839,0.22176241874694824
1781547146438105,826057265,0.4486936628818512,0.03295769914984703,0.009225324727594852,0.8930309414863586,0.9192193150520325,0.39230072498321533,9.894428253173828,-52.94305419921875,-4.087122917175293,5.285150051116943
1781547146675246,826073932,0.4466218650341034,0.03057432547211647,-0.0047026085667312145,0.8941889405250549,1.5010710954666138,0.5458866953849792,10.132447242736816,-95.93272399902344,-27.12288475036621,18.027555465698242
1781547146677478,826273936,0.4654764235019684,-0.01339585892856121,0.012754395604133606,0.884867787361145,-0.19030307233333588,0.2139274924993515,10.19759750366211,-3.523116111755371,0.8536392450332642,-1.0199360847473145
1781547146680013,826290603,0.46547678112983704,-0.013393416069447994,0.012744606472551823,0.8848677277565002,-0.1713159829378128,0.2212459146976471,10.183768272399902,-3.515868663787842,0.7749571800231934,-1.2705694437026978
1781547146915261,826307270,0.4654771685600281,-0.013386663980782032,0.01275496557354927,0.8848674297332764,-0.1806245893239975,0.21826115250587463,10.186212539672852,-3.3800442218780518,0.8131840825080872,-1.270018458366394
1781547146918023,826507274,0.46545737981796265,-0.013357515446841717,0.012735848315060139,0.8848785758018494,-0.1710088849067688,0.2382114827632904,10.18150520324707,-3.4301676750183105,0.7313128709793091,-1.2665222883224487
1781547146919488,826523941,0.4654630422592163,-0.013346139341592789,0.012721293605864048,0.8848760724067688,-0.16565370559692383,0.2364344596862793,10.171862602233887,-3.520568370819092,0.7088251113891602,-1.3089754581451416
1781547147155033,826540608,0.4654705226421356,-0.013344941660761833,0.01272520050406456,0.8848720192909241,-0.17094182968139648,0.207921102643013,10.165531158447266,-3.440579652786255,0.83040851354599,-1.3258157968521118
1781547147156112,826757279,0.4654698073863983,-0.013265332207083702,0.012692385353147984,0.8848741054534912,-0.17098191380500793,0.23531439900398254,10.181108474731445,-3.4669480323791504,0.7815651893615723,-1.276203989982605
1781547147159102,826773946,0.46547260880470276,-0.01325575914233923,0.012686233967542648,0.8848728537559509,-0.17287766933441162,0.21993723511695862,10.173369407653809,-3.480278968811035,0.7514317631721497,-1.2881265878677368
1781547147395789,826790613,0.4654824435710907,-0.013254007324576378,0.012689916417002678,0.8848676085472107,-0.16440147161483765,0.2264912873506546,10.189162254333496,-3.4447035789489746,0.8303957581520081,-1.3432708978652954
1781547147397368,826990617,0.4654606580734253,-0.013136569410562515,0.012719235382974148,0.8848804831504822,-0.16551148891448975,0.22204086184501648,10.177779197692871,-3.4846079349517822,0.7629319429397583,-1.3021752834320068
1781547147401430,827007284,0.46544909477233887,-0.013127229176461697,0.01271713525056839,0.8848867416381836,-0.17498183250427246,0.2249022275209427,10.176544189453125,-3.462158441543579,0.7701802849769592,-1.178786039352417
1781547147635175,827023951,0.4654426872730255,-0.01310903299599886,0.012710703536868095,0.8848905563354492,-0.16350911557674408,0.22487986087799072,10.184394836425781,-3.459622383117676,0.7024090886116028,-1.2176661491394043
1781547147637003,827223955,0.46543124318122864,-0.01300154346972704,0.012716546654701233,0.8848980069160461,-0.16353727877140045,0.22181585431098938,10.18891429901123,-3.406770944595337,0.8118457794189453,-1.1988282203674316
1781547147638656,827240622,0.4654387831687927,-0.012985891662538052,0.012721549719572067,0.8848941922187805,-0.17524555325508118,0.23567993938922882,10.180378913879395,-3.4000093936920166,0.7573484182357788,-1.323485016822815
1781547147875059,827257289,0.4654327630996704,-0.012981806881725788,0.012707817368209362,0.8848976492881775,-0.16181537508964539,0.22326108813285828,10.18386459350586,-3.553007125854492,0.7686179876327515,-1.2209960222244263
1781547147877609,827473960,0.46540775895118713,-0.01290293037891388,0.012675641104578972,0.8849123120307922,-0.1740063726902008,0.21461515128612518,10.180011749267578,-3.4791011810302734,0.8336101770401001,-1.2440344095230103
1781547147878546,827490627,0.46540766954421997,-0.012891731224954128,0.012669628486037254,0.8849126696586609,-0.17057445645332336,0.21695342659950256,10.18486213684082,-3.4863498210906982,0.7531351447105408,-1.2644861936569214
1781547148115028,827507294,0.46540647745132446,-0.012892089784145355,0.012671499513089657,0.8849133253097534,-0.1653079390525818,0.209318608045578,10.195472717285156,-3.4755406379699707,0.8491442799568176,-1.26087486743927
1781547148117316,827707298,0.46536901593208313,-0.01276894100010395,0.012652837671339512,0.8849350810050964,-0.18230874836444855,0.22984060645103455,10.159392356872559,-3.4908318519592285,0.8407304883003235,-1.207702875137329
1781547148118832,827723965,0.46536973118782043,-0.01275579072535038,0.012647775933146477,0.8849348425865173,-0.15699763596057892,0.22665107250213623,10.194398880004883,-3.4774105548858643,0.7471544742584229,-1.271888256072998
1781547148355011,827740632,0.4653731882572174,-0.012746918946504593,0.012654487043619156,0.8849329948425293,-0.1645083725452423,0.2326267659664154,10.179508209228516,-3.419142007827759,0.8111477494239807,-1.2947475910186768
1781547148357174,827957303,0.465320885181427,-0.012653373181819916,0.012621795758605003,0.8849624395370483,-0.1631917506456375,0.22415874898433685,10.169926643371582,-3.5404052734375,0.8108916878700256,-1.222366213798523
1781547148358561,827973970,0.46532052755355835,-0.01263944711536169,0.01261954940855503,0.8849628567695618,-0.17835159599781036,0.2229718416929245,10.211626052856445,-3.4611594676971436,0.7546974420547485,-1.264857530593872
1781547148595490,827990637,0.46532127261161804,-0.012621918693184853,0.012617336586117744,0.8849627375602722,-0.1709505021572113,0.23489472270011902,10.167513847351074,-3.449697494506836,0.7330546379089355,-1.2727974653244019
1781547148597851,828190641,0.4652848243713379,-0.012531406246125698,0.012618455104529858,0.8849830627441406,-0.1709960401058197,0.228032186627388,10.189530372619629,-3.4115729331970215,0.82496577501297,-1.194793939590454
1781547148599905,828207308,0.46528202295303345,-0.01252597477287054,0.012624111026525497,0.8849846124649048,-0.1646272987127304,0.21777565777301788,10.176711082458496,-3.443512439727783,0.8343785405158997,-1.2473257780075073
1781547148835789,828223975,0.46528035402297974,-0.012517276220023632,0.012627779506146908,0.8849855065345764,-0.15736770629882812,0.22264641523361206,10.187915802001953,-3.445420265197754,0.8081510663032532,-1.2555088996887207
1781547148837642,828440646,0.4652166962623596,-0.012397895567119122,0.012649700045585632,0.88502037525177,-0.14612872898578644,0.2372874915599823,10.184127807617188,-3.4451518058776855,0.8102642297744751,-1.2011972665786743
1781547148838877,828457313,0.4652177691459656,-0.01237394753843546,0.012650396674871445,0.8850200772285461,-0.1717393547296524,0.2102416455745697,10.185333251953125,-3.416977643966675,0.7081975936889648,-1.2738990783691406
1781547149015178,828473980,0.46521201729774475,-0.012356788851320744,0.012656056322157383,0.8850234150886536,-0.17861957848072052,0.22323957085609436,10.181683540344238,-3.409165859222412,0.7658389806747437,-1.2222381830215454
1781547149017383,828673984,0.4652119576931,-0.012214976362884045,0.012648819014430046,0.8850255012512207,-0.16958560049533844,0.21896061301231384,10.18001937866211,-3.4521055221557617,0.8132097125053406,-1.2520384788513184
1781547149019697,828690651,0.46521520614624023,-0.012212670408189297,0.01264605950564146,0.8850237727165222,-0.16559499502182007,0.23929688334465027,10.183794975280762,-3.509209394454956,0.8309081196784973,-1.2929805517196655
1781547149255176,828707318,0.46521639823913574,-0.01220464427024126,0.012650737538933754,0.8850231766700745,-0.16868086159229279,0.23056471347808838,10.185297012329102,-3.446342706680298,0.8197792768478394,-1.2762680053710938
1781547149257321,828857321,0.46521827578544617,-0.012121422216296196,0.012671178206801414,0.8850231170654297,-0.17960679531097412,0.22048676013946533,10.20225715637207,-3.4711484909057617,0.7763914465904236,-1.267354965209961
1781547149258305,828873988,0.4652118682861328,-0.012115975841879845,0.012674592435359955,0.8850266337394714,-0.16964417695999146,0.22992722690105438,10.202680587768555,-3.464629650115967,0.8330209851264954,-1.2182551622390747
