host_t_us,sensor_t_us,qw,qx,qy,qz,ax,ay,az,gx,gy,gz
1781536308977748,1752283427,0.028528807684779167,-0.8075476288795471,-0.5890417098999023,0.009100276976823807,0.07125913351774216,-0.4804385304450989,-9.32406997680664,0.4666057229042053,0.2210696041584015,0.5931965112686157
1781536308978294,1752300094,0.028514737263321877,-0.8075474500656128,-0.5890425443649292,0.00909912958741188,0.06146816909313202,-0.48156851530075073,-9.30306339263916,0.414048433303833,0.15847216546535492,0.5839887261390686
1781536309007259,1752316761,0.02849463000893593,-0.8075495362281799,-0.5890409350395203,0.009096074849367142,0.07584420591592789,-0.48412907123565674,-9.320916175842285,0.37258151173591614,0.145076721906662,0.6041074991226196
1781536309007926,1752333428,0.028490303084254265,-0.8075422048568726,-0.5890512466430664,0.009094245731830597,0.07887325435876846,-0.48373210430145264,-9.312451362609863,0.4660038948059082,0.19990071654319763,0.5120810866355896
1781536309037675,1752350095,0.028488649055361748,-0.8075430393218994,-0.5890500545501709,0.009103847667574883,0.07574447244405746,-0.4953726530075073,-9.318323135375977,0.5268852710723877,0.1478429138660431,0.5746016502380371
1781536309038147,1752366762,0.028487740084528923,-0.8075451850891113,-0.5890472531318665,0.009097712114453316,0.07246826589107513,-0.4754996597766876,-9.302380561828613,0.46636244654655457,0.24070173501968384,0.6232786178588867
1781536309067428,1752383429,0.028473343700170517,-0.8075429201126099,-0.5890509486198425,0.009103567339479923,0.06914597004652023,-0.4812609553337097,-9.305305480957031,0.44040393829345703,0.11808093637228012,0.5767018795013428
1781536309096522,1752400096,0.028365105390548706,-0.8074621558189392,-0.589165449142456,0.009190724231302738,0.07689885050058365,-0.4802775979042053,-9.289363861083984,0.44939401745796204,0.18336769938468933,0.5736795663833618
1781536309097519,1752416763,0.028355613350868225,-0.807464599609375,-0.5891623497009277,0.0092002609744668,0.07629480957984924,-0.4739547669887543,-9.326781272888184,0.48272889852523804,0.11843952536582947,0.6056826710700989
1781536309127805,1752433430,0.0283427182585001,-0.807463526725769,-0.5891645550727844,0.009194986894726753,0.08256032317876816,-0.4797482192516327,-9.26990795135498,0.4036369323730469,0.18705594539642334,0.5878562927246094
1781536309128329,1752450097,0.028338907286524773,-0.8074561357498169,-0.5891748070716858,0.009192344732582569,0.05755223333835602,-0.4889497756958008,-9.315443992614746,0.4651585519313812,0.20776379108428955,0.5274743437767029
1781536309157531,1752466764,0.028349025174975395,-0.8074617981910706,-0.5891665816307068,0.009202943183481693,0.06399182230234146,-0.4809204936027527,-9.299527168273926,0.59591144323349,0.19153815507888794,0.6233682632446289
1781536309158024,1752483431,0.02833601087331772,-0.8074620366096497,-0.5891669392585754,0.009202692657709122,0.06269122660160065,-0.49107763171195984,-9.303009986877441,0.42399901151657104,0.15614141523838043,0.555084764957428
1781536309187151,1752500098,0.028330018743872643,-0.8074628114700317,-0.589165985584259,0.009210220538079739,0.06506194174289703,-0.48079603910446167,-9.30162239074707,0.4936271607875824,0.14392417669296265,0.6067072749137878
1781536309187694,1752516765,0.02832150273025036,-0.8074660897254944,-0.58916175365448,0.00920947827398777,0.07844372093677521,-0.4740835726261139,-9.310845375061035,0.445859432220459,0.1801661252975464,0.6311545372009277
1781536309217227,1752533432,0.028326809406280518,-0.8074659705162048,-0.5891616940498352,0.00921561662107706,0.08421610295772552,-0.46960964798927307,-9.309672355651855,0.5509099364280701,0.19673752784729004,0.5926713943481445
1781536309247635,1752550099,0.028324084356427193,-0.8074660897254944,-0.5891615748405457,0.009216191247105598,0.08081155270338058,-0.48146119713783264,-9.307422637939453,0.4836125671863556,0.19543127715587616,0.600918710231781
1781536309248290,1752566766,0.028319818899035454,-0.8074637055397034,-0.5891650915145874,0.009210081771016121,0.07052996009588242,-0.4777097702026367,-9.324441909790039,0.4483310580253601,0.22478345036506653,0.5595670342445374
1781536309278049,1752583433,0.02830337919294834,-0.8074644804000854,-0.5891647934913635,0.009212827309966087,0.08454511314630508,-0.48411476612091064,-9.328393936157227,0.41646888852119446,0.12636665999889374,0.582720935344696
1781536309278763,1752600100,0.02829940989613533,-0.8074671626091003,-0.5891615152359009,0.009214304387569427,0.0732550323009491,-0.4788648784160614,-9.32961654663086,0.48041102290153503,0.18432819843292236,0.6020969748497009
1781536309307013,1752616767,0.02831268310546875,-0.8074688911437988,-0.5891581177711487,0.009230631403625011,0.06692079454660416,-0.47041597962379456,-9.30816650390625,0.6362258195877075,0.17226460576057434,0.6134049296379089
1781536309307344,1752633434,0.028303517028689384,-0.8074688911437988,-0.5891584157943726,0.009236147627234459,0.07491081207990646,-0.48915719985961914,-9.312590599060059,0.4678351581096649,0.14081218838691711,0.5899948477745056
1781536309337390,1752650101,0.028304168954491615,-0.8074646592140198,-0.5891638994216919,0.00924705807119608,0.06374231725931168,-0.48996901512145996,-9.30678939819336,0.5444811582565308,0.1496870219707489,0.5517296195030212
1781536309337982,1752666768,0.02829105034470558,-0.8074623942375183,-0.5891678333282471,0.009240234270691872,0.06256932020187378,-0.49153897166252136,-9.31548023223877,0.39604273438453674,0.1923065334558487,0.5594517588615417
1781536309366988,1752683435,0.02828916348516941,-0.8074663281440735,-0.5891626477241516,0.009235036559402943,0.0775214433670044,-0.47590020298957825,-9.300370216369629,0.46542760729789734,0.227639302611351,0.5774319171905518
1781536309399761,1752700102,0.028281569480895996,-0.8074661493301392,-0.5891632437705994,0.009236550889909267,0.07587281614542007,-0.48702579736709595,-9.30252742767334,0.460791677236557,0.16730856895446777,0.557249128818512
1781536309400267,1752716769,0.028283685445785522,-0.807465672492981,-0.5891637206077576,0.009239655919373035,0.06347052752971649,-0.4807209372520447,-9.299869537353516,0.520341157913208,0.2001696527004242,0.6001119613647461
1781536309429688,1752733436,0.028274400159716606,-0.8074666857719421,-0.5891625881195068,0.009247909300029278,0.06896000355482101,-0.4790973365306854,-9.294784545898438,0.4772862195968628,0.1268276572227478,0.6341896057128906
1781536309430430,1752750103,0.028275983408093452,-0.8074667453765869,-0.5891625285148621,0.009251674637198448,0.08092241734266281,-0.4637017548084259,-9.298238754272461,0.5203795433044434,0.19297246634960175,0.5807871222496033
1781536309461479,1752766770,0.028256701305508614,-0.8074690699577332,-0.5891600251197815,0.009258825331926346,0.08834629505872726,-0.4836820662021637,-9.283041000366211,0.41778790950775146,0.09058570861816406,0.6142373085021973
1781536309461681,1752783437,0.028253043070435524,-0.8074684143066406,-0.5891609787940979,0.009261120110750198,0.07793591916561127,-0.4809034466743469,-9.32293701171875,0.48518770933151245,0.17993561923503876,0.5812482237815857
1781536309489274,1752800104,0.028250442817807198,-0.8074661493301392,-0.5891642570495605,0.009267404675483704,0.08233144134283066,-0.49307674169540405,-9.322592735290527,0.5078806281089783,0.15979121625423431,0.5330963134765625
1781536309489704,1752816771,0.028251906856894493,-0.8074613213539124,-0.5891706347465515,0.0092765549197793,0.0713954046368599,-0.48158636689186096,-9.325128555297852,0.5417022109031677,0.16146886348724365,0.5419711470603943
1781536309518409,1752833438,0.028253119438886642,-0.807463526725769,-0.5891674757003784,0.009292401373386383,0.07457642257213593,-0.47491157054901123,-9.31694221496582,0.5667514204978943,0.12508602440357208,0.6180537343025208
1781536309547630,1752850105,0.028231581673026085,-0.8074615001678467,-0.5891709327697754,0.009304997511208057,0.074839286506176,-0.4898223876953125,-9.315987586975098,0.42789214849472046,0.04859369248151779,0.5524466633796692
1781536309548010,1752866772,0.02821602299809456,-0.8074599504470825,-0.5891738533973694,0.009300580248236656,0.07134862244129181,-0.47509923577308655,-9.339902877807617,0.3919832408428192,0.16742382943630219,0.5534840822219849
1781536309577157,1752883439,0.028203770518302917,-0.8074563145637512,-0.589179515838623,0.009300056844949722,0.08809629082679749,-0.47312864661216736,-9.30640697479248,0.4260352551937103,0.1594710648059845,0.5494372248649597
1781536309577579,1752900106,0.02821476198732853,-0.8074563145637512,-0.5891789197921753,0.00929988082498312,0.08175542205572128,-0.48001357913017273,-9.309419631958008,0.5562374591827393,0.2526884973049164,0.5913780331611633
1781536309607256,1752916773,0.02821979857981205,-0.8074553608894348,-0.589180052280426,0.009292942471802235,0.08147712796926498,-0.4852232038974762,-9.300774574279785,0.49542003870010376,0.2667626440525055,0.5982293486595154
1781536309607694,1752933440,0.028223371133208275,-0.8074504733085632,-0.5891866087913513,0.009295620024204254,0.07513649761676788,-0.5001254677772522,-9.31843376159668,0.5268212556838989,0.20571480691432953,0.5475931167602539
1781536309637233,1752950107,0.028223367407917976,-0.8074485659599304,-0.5891889333724976,0.009307109750807285,0.07838688790798187,-0.4902515411376953,-9.279645919799805,0.5425474047660828,0.14240019023418427,0.5709518194198608
1781536309637698,1752966774,0.028218356892466545,-0.807453989982605,-0.5891819000244141,0.009302525781095028,0.07546870410442352,-0.4797339141368866,-9.282361030578613,0.44868963956832886,0.2136547565460205,0.6512861251831055
1781536309667072,1752983441,0.028208190575242043,-0.8074485063552856,-0.5891900062561035,0.009302735328674316,0.08637256175279617,-0.49386706948280334,-9.354281425476074,0.44033992290496826,0.16338980197906494,0.5406007766723633
1781536309697276,1753000108,0.028214573860168457,-0.8074492812156677,-0.5891883969306946,0.009314591065049171,0.07630139589309692,-0.48733440041542053,-9.247495651245117,0.5791863799095154,0.16679629683494568,0.6008931398391724
1781536309697719,1753016775,0.028200026601552963,-0.8074499368667603,-0.5891878604888916,0.009328480809926987,0.06824082881212234,-0.5010409951210022,-9.334712982177734,0.47101113200187683,0.07065903395414352,0.6011236906051636
1781536309727977,1753033442,0.0281960591673851,-0.8074482679367065,-0.5891905426979065,0.009329590015113354,0.07250760495662689,-0.47769904136657715,-9.338810920715332,0.478336364030838,0.18309879302978516,0.5611422061920166
1781536309728968,1753050109,0.028196508064866066,-0.807437539100647,-0.5892048478126526,0.009343721903860569,0.06372801214456558,-0.4691089987754822,-9.217921257019043,0.5565319061279297,0.12608490884304047,0.4680144786834717
1781536309756974,1753066776,0.028198426589369774,-0.8074309229850769,-0.5892136693000793,0.009349564090371132,0.06907444447278976,-0.49894171953201294,-9.323859214782715,0.5306758880615234,0.17893670499324799,0.5073426961898804
1781536309757372,1753083443,0.02818000502884388,-0.8074273467063904,-0.5892195701599121,0.009352389723062515,0.09043899178504944,-0.47647958993911743,-9.443121910095215,0.40512245893478394,0.11404693871736526,0.5375913381576538
1781536309787454,1753100110,0.02815542370080948,-0.8074312806129456,-0.5892152190208435,0.009359929710626602,0.05101102218031883,-0.4814683496952057,-9.199203491210938,0.3895755410194397,0.06417901813983917,0.6072066426277161
1781536309816761,1753116777,0.028146035969257355,-0.8074305653572083,-0.589216411113739,0.00936711486428976,0.058739203959703445,-0.48437583446502686,-9.332220077514648,0.47253507375717163,0.1275448352098465,0.5780337452888489
1781536309817268,1753133444,0.028145840391516685,-0.8074307441711426,-0.5892162322998047,0.009361359290778637,0.06261975318193436,-0.46464940905570984,-9.253911972045898,0.471075177192688,0.23680861294269562,0.5852565765380859
1781536309847351,1753150111,0.02814028225839138,-0.8074337840080261,-0.5892125964164734,0.009358086623251438,0.06025909259915352,-0.4768979847431183,-9.295563697814941,0.45071303844451904,0.20296141505241394,0.6327040791511536
1781536309847920,1753166778,0.02814190462231636,-0.8074345588684082,-0.5892114043235779,0.00935877300798893,0.06615626066923141,-0.48158279061317444,-9.303396224975586,0.5070225596427917,0.20900601148605347,0.6035184264183044
1781536309877240,1753183445,0.028131240978837013,-0.8074305653572083,-0.5892173051834106,0.009360330179333687,0.08312926441431046,-0.4981442391872406,-9.34074592590332,0.44265785813331604,0.1531447321176529,0.5535480380058289
1781536309877707,1753200112,0.028129471465945244,-0.8074243068695068,-0.5892257690429688,0.009368140250444412,0.089218869805336,-0.491667777299881,-9.317737579345703,0.517767071723938,0.15310630202293396,0.5193679332733154
1781536309907141,1753216779,0.028122980147600174,-0.8074197769165039,-0.589232325553894,0.009357485920190811,0.08411626517772675,-0.4868827164173126,-9.294075965881348,0.41657131910324097,0.23651406168937683,0.5288445949554443
1781536309907812,1753233446,0.028116952627897263,-0.8074142932891846,-0.5892402529716492,0.009359658695757389,0.08001440018415451,-0.48807719349861145,-9.305788040161133,0.4709470868110657,0.1674237996339798,0.5314571261405945
1781536309937477,1753250113,0.028110617771744728,-0.807414710521698,-0.5892402529716492,0.009356611408293247,0.05948663130402565,-0.49019432067871094,-9.284523963928223,0.448228657245636,0.19453488290309906,0.5551616549491882
1781536309967680,1753266780,0.02809956483542919,-0.8074153661727905,-0.5892395973205566,0.009355820715427399,0.0716242790222168,-0.48059576749801636,-9.323348045349121,0.43023571372032166,0.1656949520111084,0.6080518960952759
1781536309968291,1753283447,0.02810553088784218,-0.8074159026145935,-0.5892387628555298,0.009347640909254551,0.06718658655881882,-0.46421656012535095,-9.3189058303833,0.4954840838909149,0.2736140489578247,0.5715665817260742
1781536309997616,1753300114,0.02809794433414936,-0.8074225187301636,-0.5892298817634583,0.009359929710626602,0.06228477880358696,-0.47487303614616394,-9.317217826843262,0.5015798807144165,0.10964155942201614,0.6922919750213623
1781536309998443,1753316781,0.028099551796913147,-0.8074241876602173,-0.5892273187637329,0.0093718022108078,0.07331225275993347,-0.473761647939682,-9.292141914367676,0.5519600510597229,0.14624209702014923,0.612956702709198
1781536310027535,1753333448,0.028101783245801926,-0.8074275255203247,-0.5892226099967957,0.009381434880197048,0.08240225911140442,-0.4883635938167572,-9.321325302124023,0.5461587905883789,0.1613920032978058,0.6264417767524719
1781536310028050,1753350115,0.028106799349188805,-0.80743408203125,-0.5892132520675659,0.00938933715224266,0.06130373850464821,-0.47275543212890625,-9.312949180603027,0.5542140007019043,0.18355980515480042,0.6696760058403015
1781536310057871,1753366782,0.028103869408369064,-0.8074303865432739,-0.5892181992530823,0.009398836642503738,0.07314453274011612,-0.4785788059234619,-9.32400894165039,0.5178824067115784,0.13822534680366516,0.5364900231361389
1781536310058713,1753383449,0.028102556243538857,-0.8074318766593933,-0.5892161130905151,0.00940163154155016,0.06813706457614899,-0.496349036693573,-9.291984558105469,0.4988136887550354,0.1844690442085266,0.610882043838501
1781536310089699,1753400116,0.028088262304663658,-0.80743008852005,-0.5892193913459778,0.009396815672516823,0.06822330504655838,-0.5007727146148682,-9.30136489868164,0.3956841826438904,0.1742495894432068,0.5919287204742432
1781536310119788,1753416783,0.028099413961172104,-0.8074357509613037,-0.589211106300354,0.009399522095918655,0.08097321540117264,-0.48711034655570984,-9.301709175109863,0.5671996474266052,0.23682141304016113,0.6612750887870789
1781536310120599,1753433450,0.02810392715036869,-0.8074327111244202,-0.5892149806022644,0.009399306029081345,0.07438549399375916,-0.4842470586299896,-9.303813934326172,0.5194191336631775,0.22284968197345734,0.553138256072998
1781536310147451,1753450117,0.028113065287470818,-0.807426929473877,-0.5892224311828613,0.009400490671396255,0.06663904339075089,-0.48366057872772217,-9.296018600463867,0.5511404871940613,0.2324928641319275,0.5157181024551392
1781536310147936,1753466784,0.02812676504254341,-0.8074214458465576,-0.5892292857170105,0.00940309651196003,0.07881209999322891,-0.4752425253391266,-9.31568431854248,0.5814530849456787,0.2453376203775406,0.5591444373130798
1781536310176570,1753483451,0.02811655029654503,-0.8074220418930054,-0.5892286896705627,0.009416674263775349,0.07527916133403778,-0.4694594740867615,-9.298007011413574,0.4928971827030182,0.08789637684822083,0.6035439968109131
1781536310177317,1753500118,0.02810366079211235,-0.8074246048927307,-0.589225709438324,0.009420142509043217,0.08731667697429657,-0.47081127762794495,-9.30215835571289,0.43683096766471863,0.13379435241222382,0.6246873736381531
1781536310208839,1753516785,0.028096362948417664,-0.8074252605438232,-0.5892253518104553,0.009415137581527233,0.0733015239238739,-0.4877517521381378,-9.293975830078125,0.43412888050079346,0.201514333486557,0.5788021683692932
1781536310209411,1753533452,0.028082702308893204,-0.8074302077293396,-0.5892190337181091,0.00942519586533308,0.0821097195148468,-0.47381529211997986,-9.30443286895752,0.45897307991981506,0.09472215920686722,0.6549615263938904
1781536310239512,1753550119,0.02808673493564129,-0.8074293732643127,-0.5892200469970703,0.009423858486115932,0.07670249044895172,-0.4908451735973358,-9.305127143859863,0.5115816593170166,0.22808746993541718,0.5925561785697937
1781536310267422,1753566786,0.028083201497793198,-0.8074268102645874,-0.5892235636711121,0.009427453391253948,0.06881338357925415,-0.48611384630203247,-9.313248634338379,0.4899389147758484,0.1684611290693283,0.5578382015228271
1781536310267811,1753583453,0.028077468276023865,-0.8074283003807068,-0.5892220735549927,0.009419944137334824,0.07125914841890335,-0.4843437373638153,-9.308460235595703,0.4320286512374878,0.22313141822814941,0.6130848526954651
1781536310297155,1753600120,0.028057437390089035,-0.8074274063110352,-0.5892244577407837,0.00941487867385149,0.07942398637533188,-0.4746413826942444,-9.300539016723633,0.36282309889793396,0.15031452476978302,0.5769964456558228
1781536310297638,1753616787,0.028047865256667137,-0.807418942451477,-0.5892361402511597,0.009420759044587612,0.074521005153656,-0.47190558910369873,-9.298782348632812,0.4650433659553528,0.13273140788078308,0.5530486106872559
1781536310327344,1753633454,0.02805442176759243,-0.8074233531951904,-0.5892296433448792,0.009428120218217373,0.07428719848394394,-0.48659899830818176,-9.305475234985352,0.5604763031005859,0.19025751948356628,0.637237548828125
1781536310327786,1753650121,0.028055647388100624,-0.8074207305908203,-0.5892331600189209,0.009432589635252953,0.07729256898164749,-0.47614338994026184,-9.291179656982422,0.5195727944374084,0.18320122361183167,0.5692742466926575
1781536310356951,1753666788,0.028047854080796242,-0.8074167370796204,-0.5892390012741089,0.009430812671780586,0.0650300681591034,-0.4670526683330536,-9.297927856445312,0.444566011428833,0.17979472875595093,0.5342104434967041
1781536310357374,1753683455,0.028038429096341133,-0.8074097633361816,-0.5892489552497864,0.009429214522242546,0.07472127676010132,-0.4911026656627655,-9.314092636108398,0.43606260418891907,0.17257197201251984,0.5244392156600952
1781536310387188,1753700122,0.028036490082740784,-0.8074149489402771,-0.5892419815063477,0.009436517022550106,0.07418852299451828,-0.4872857928276062,-9.288018226623535,0.5127982497215271,0.1563207060098648,0.6480333209037781
1781536310417225,1753716789,0.0280271265655756,-0.8074128031730652,-0.5892452001571655,0.009442259557545185,0.06736501306295395,-0.47393688559532166,-9.316309928894043,0.46593981981277466,0.13238564133644104,0.5633705258369446
1781536310417698,1753733456,0.028023798018693924,-0.807409405708313,-0.5892502665519714,0.009442256763577461,0.0708264410495758,-0.4752923846244812,-9.286660194396973,0.4761976897716522,0.18851587176322937,0.5513709783554077
1781536310447419,1753750123,0.02801874838769436,-0.8074079751968384,-0.5892522931098938,0.009446927346289158,0.06946425139904022,-0.47931548953056335,-9.313223838806152,0.48571279644966125,0.1551809310913086,0.5590547919273376
1781536310448089,1753766790,0.02800840139389038,-0.8074079751968384,-0.5892526507377625,0.009456749074161053,0.07367308437824249,-0.48180100321769714,-9.28886604309082,0.4765819013118744,0.10674732178449631,0.5966926217079163
1781536310477184,1753783457,0.028004981577396393,-0.8074084520339966,-0.5892520546913147,0.009460941888391972,0.07125987857580185,-0.476164847612381,-9.28762149810791,0.4926794767379761,0.16470886766910553,0.5773422122001648
1781536310477723,1753800124,0.028003869578242302,-0.8074072599411011,-0.5892534852027893,0.009471479803323746,0.07311555743217468,-0.47882553935050964,-9.306564331054688,0.5309576392173767,0.13942912220954895,0.5802108645439148
1781536310507488,1753816791,0.028016075491905212,-0.8074116110801697,-0.5892468094825745,0.009473903104662895,0.0677868127822876,-0.47169506549835205,-9.27798843383789,0.5714513063430786,0.24020227789878845,0.644332230091095
1781536310508079,1753833458,0.02802102081477642,-0.8074092268943787,-0.5892499685287476,0.009479775093495846,0.06679600477218628,-0.4875086843967438,-9.311224937438965,0.5458642244338989,0.18906652927398682,0.560232937335968
1781536310536270,1753850125,0.028016583994030952,-0.8074060678482056,-0.5892543792724609,0.009485087357461452,0.05759124085307121,-0.4869542717933655,-9.300259590148926,0.49162939190864563,0.15354172885417938,0.5453648567199707
1781536310569200,1753866792,0.027994917705655098,-0.8074040412902832,-0.5892581939697266,0.009481866843998432,0.08694475144147873,-0.47888991236686707,-9.30726146697998,0.36063316464424133,0.1328466534614563,0.5817603468894958
1781536310569994,1753883459,0.027991432696580887,-0.8074032068252563,-0.589259684085846,0.009474178776144981,0.0706944689154625,-0.48544153571128845,-9.297083854675293,0.4438616633415222,0.2303542196750641,0.572911262512207
1781536310597272,1753900126,0.02798076532781124,-0.8074024319648743,-0.5892611742019653,0.009471900761127472,0.059987623244524,-0.4693736433982849,-9.289527893066406,0.4258943498134613,0.17097117006778717,0.5721940994262695
1781536310597579,1753916793,0.027976233512163162,-0.8074061870574951,-0.5892565250396729,0.009461837820708752,0.07876921445131302,-0.47391557693481445,-9.291123390197754,0.42866051197052,0.23835818469524384,0.5844625234603882
1781536310630182,1753933460,0.02796243689954281,-0.807404637336731,-0.589259147644043,0.009467181749641895,0.07386267185211182,-0.4820370376110077,-9.291205406188965,0.4395587146282196,0.11527634412050247,0.5590162873268127
1781536310630394,1753950127,0.027964022010564804,-0.8074027299880981,-0.589261531829834,0.009476158767938614,0.07103380560874939,-0.46845105290412903,-9.313070297241211,0.5396019220352173,0.15785746276378632,0.5644718408584595
1781536310657121,1753966794,0.027958903461694717,-0.8074083924293518,-0.5892540812492371,0.00946776568889618,0.08134083449840546,-0.4680289626121521,-9.32994556427002,0.4311577379703522,0.22938093543052673,0.6482254266738892
1781536310657565,1753983461,0.027951890602707863,-0.8074119687080383,-0.5892494916915894,0.009467522613704205,0.0607672743499279,-0.490183562040329,-9.301722526550293,0.4542348384857178,0.17444169521331787,0.6040050983428955
1781536310687260,1754000128,0.027962781488895416,-0.8074086308479309,-0.5892534255981445,0.009479067288339138,0.06202530488371849,-0.48840630054473877,-9.318796157836914,0.601712703704834,0.180780827999115,0.5536760687828064
1781536310687685,1754016795,0.027966130524873734,-0.8074054718017578,-0.5892575979232788,0.009475864470005035,0.0694674476981163,-0.4746415317058563,-9.285444259643555,0.49959489703178406,0.23321004211902618,0.5725142359733582
1781536310716736,1754033462,0.027952095493674278,-0.8074050545692444,-0.5892587900161743,0.009484710171818733,0.080082006752491,-0.4802023768424988,-9.31667423248291,0.45191690325737,0.09549054503440857,0.5839375257492065
1781536310747940,1754050129,0.02795000560581684,-0.807401180267334,-0.5892640948295593,0.009483912028372288,0.07961710542440414,-0.4868541359901428,-9.293993949890137,0.47952741384506226,0.1963149458169937,0.5445579886436462
1781536310748348,1754066796,0.027938345447182655,-0.8073959350585938,-0.5892717838287354,0.009499633684754372,0.061643086373806,-0.4872010350227356,-9.272239685058594,0.4933837950229645,0.06513949483633041,0.5294721126556396
1781536310777213,1754083463,0.027933107689023018,-0.8073917031288147,-0.5892777442932129,0.009505870752036572,0.06213660165667534,-0.48569902777671814,-9.285236358642578,0.4906560778617859,0.14389854669570923,0.5354783535003662
1781536310777651,1754100130,0.0279307309538126,-0.8073815703392029,-0.5892915725708008,0.009511501528322697,0.06589129567146301,-0.48401111364364624,-9.306951522827148,0.5043076276779175,0.15797272324562073,0.4868013560771942
1781536310806911,1754116797,0.027932090684771538,-0.8073847889900208,-0.5892869234085083,0.009521515108644962,0.057469692081213,-0.48525458574295044,-9.3145112991333,0.5417150855064392,0.15219706296920776,0.6263393759727478
1781536310807411,1754133464,0.027935944497585297,-0.8073804378509521,-0.5892926454544067,0.009527337737381458,0.06801588833332062,-0.4808174967765808,-9.305501937866211,0.5391152501106262,0.1836366355419159,0.54921954870224
1781536310837151,1754150131,0.027909522876143456,-0.8073763251304626,-0.5892994403839111,0.00952839758247137,0.06542671471834183,-0.4858170449733734,-9.295735359191895,0.3516303300857544,0.08724325150251389,0.5460179448127747
1781536310837826,1754166798,0.02789122611284256,-0.8073777556419373,-0.58929842710495,0.009524551220238209,0.06771223247051239,-0.47921526432037354,-9.317800521850586,0.3756806552410126,0.15086519718170166,0.6398628354072571
1781536310867136,1754183465,0.027886241674423218,-0.807378888130188,-0.5892970561981201,0.00952460803091526,0.05725507810711861,-0.48036330938339233,-9.301397323608398,0.46661850810050964,0.1796666830778122,0.5791095495223999
1781536310899212,1754200132,0.027873612940311432,-0.8073805570602417,-0.5892956256866455,0.009520461782813072,0.0627409815788269,-0.47934409976005554,-9.310563087463379,0.40688973665237427,0.17235426604747772,0.5876513719558716
1781536310900524,1754216799,0.027860140427947044,-0.8073741793632507,-0.5893045663833618,0.009530720300972462,0.07038300484418869,-0.4888961613178253,-9.316113471984863,0.46034350991249084,0.08985575288534164,0.5610526204109192
1781536310933237,1754233466,0.02784990333020687,-0.8073633909225464,-0.5893199443817139,0.00953142624348402,0.06861285120248795,-0.4719485640525818,-9.309157371520996,0.4407753348350525,0.15180006623268127,0.45990800857543945
1781536310933596,1754250133,0.027842288836836815,-0.8073613047599792,-0.5893232822418213,0.009523906745016575,0.07851205766201019,-0.47809600830078125,-9.297527313232422,0.4213224947452545,0.2102738469839096,0.5488097071647644
1781536310982730,1754266800,0.02784808725118637,-0.8073592185974121,-0.5893259048461914,0.009520263411104679,0.07561496645212173,-0.47925126552581787,-9.292850494384766,0.5117097496986389,0.24244344234466553,0.539268970489502
1781536310983308,1754283467,0.02783633954823017,-0.8073558211326599,-0.5893307328224182,0.009537668898701668,0.08214905858039856,-0.4807388186454773,-9.311653137207031,0.4993388056755066,0.055086515843868256,0.5482975244522095
1781536310986869,1754300134,0.027827180922031403,-0.8073519468307495,-0.589336633682251,0.009533208794891834,0.07685597240924835,-0.49539777636528015,-9.297828674316406,0.42508751153945923,0.18663331866264343,0.5365027785301208
1781536310987040,1754316801,0.027816161513328552,-0.8073509335517883,-0.5893383622169495,0.009547430090606213,0.0693458840250969,-0.4856525659561157,-9.30436897277832,0.4903615415096283,0.07549983263015747,0.5600408315658569
1781536311017694,1754333468,0.027829481288790703,-0.8073527216911316,-0.5893352031707764,0.00955888256430626,0.07578995078802109,-0.4782068729400635,-9.309013366699219,0.6136226058006287,0.19193516671657562,0.6209990978240967
1781536311046744,1754350135,0.02781260572373867,-0.8073487281799316,-0.5893416404724121,0.009546332992613316,0.07750687003135681,-0.47351500391960144,-9.29507827758789,0.3483390808105469,0.20316632091999054,0.5892778038978577
1781536311047758,1754366802,0.02780858427286148,-0.8073452115058899,-0.589346706867218,0.009542996995151043,0.07328364253044128,-0.48821309208869934,-9.312490463256836,0.45817917585372925,0.20072032511234283,0.5353630185127258
1781536311077656,1754383469,0.02780287154018879,-0.8073455095291138,-0.5893464684486389,0.009545251727104187,0.06760498881340027,-0.4690374732017517,-9.28782844543457,0.4708830714225769,0.16454239189624786,0.5904943346977234
1781536311077992,1754400136,0.027705548331141472,-0.8074184060096741,-0.5892504453659058,0.009594601579010487,0.05657917633652687,-0.47634008526802063,-9.302938461303711,0.4921800196170807,0.16645053029060364,0.6110101342201233
1781536311107033,1754416803,0.027699122205376625,-0.8074172735214233,-0.5892521739006042,0.009602122008800507,0.07075133174657822,-0.47468793392181396,-9.306622505187988,0.48899123072624207,0.13150198757648468,0.5575820207595825
1781536311107291,1754433470,0.027695264667272568,-0.807422935962677,-0.5892447233200073,0.009594247676432133,0.07043658941984177,-0.47333621978759766,-9.308877944946289,0.43991729617118835,0.2304694801568985,0.6497109532356262
1781536311136945,1754450137,0.027695439755916595,-0.8074240684509277,-0.5892433524131775,0.009584151208400726,0.07458574324846268,-0.4822406470775604,-9.321846008300781,0.45376095175743103,0.25756770372390747,0.5953351259231567
1781536311137255,1754466804,0.027683602645993233,-0.807427704334259,-0.5892387628555298,0.009591586887836456,0.06286615133285522,-0.4854916036128998,-9.288472175598145,0.45775651931762695,0.11240773648023605,0.6300019025802612
1781536311167002,1754483471,0.027678562328219414,-0.8074288368225098,-0.5892375707626343,0.009582585655152798,0.058964505791664124,-0.48246970772743225,-9.311924934387207,0.4299796223640442,0.22758804261684418,0.5487329363822937
1781536311226366,1754500138,0.02768111042678356,-0.8074333071708679,-0.5892311334609985,0.009589122608304024,0.06434990465641022,-0.4737560451030731,-9.292708396911621,0.5337879061698914,0.1761961728334427,0.6465734839439392
1781536311226794,1754516805,0.027677325531840324,-0.8074283003807068,-0.589238166809082,0.00958807859569788,0.05509147420525551,-0.4932841658592224,-9.294018745422363,0.4689749479293823,0.18893848359584808,0.52443927526474
1781536311227406,1754533472,0.027673909440636635,-0.8074278831481934,-0.5892388820648193,0.009587932378053665,0.057573724538087845,-0.47033560276031494,-9.316839218139648,0.47411027550697327,0.1871071457862854,0.5809792876243591
1781536311227476,1754550139,0.027673281729221344,-0.8074236512184143,-0.589244544506073,0.009597531519830227,0.06387463957071304,-0.4842113256454468,-9.303263664245605,0.529395341873169,0.14338628947734833,0.5461204051971436
1781536311256931,1754566806,0.02767867036163807,-0.8074262738227844,-0.5892406702041626,0.009593000635504723,0.07328810542821884,-0.4794820249080658,-9.310632705688477,0.5046534538269043,0.24902589619159698,0.635150134563446
1781536311257220,1754583473,0.0276735071092844,-0.8074257969856262,-0.5892416834831238,0.009598126634955406,0.06637798249721527,-0.46757838129997253,-9.301955223083496,0.4857640266418457,0.15031452476978302,0.5764073729515076
1781536311288829,1754600140,0.027668248862028122,-0.8074238896369934,-0.5892446637153625,0.009587607346475124,0.08087203651666641,-0.47950875759124756,-9.304072380065918,0.4218219220638275,0.23677019774913788,0.5663288235664368
1781536311290237,1754616807,0.027665521949529648,-0.8074195384979248,-0.5892508625984192,0.009584721177816391,0.07800423353910446,-0.4721273183822632,-9.307759284973145,0.4670155346393585,0.20401152968406677,0.5436743497848511
1781536311317027,1754633474,0.02765304408967495,-0.8074256181716919,-0.5892431139945984,0.009585795924067497,0.09344987571239471,-0.47815680503845215,-9.309221267700195,0.4283532202243805,0.14410345256328583,0.6355471611022949
1781536311348000,1754650141,0.02764277718961239,-0.8074198961257935,-0.5892514586448669,0.009586150757968426,0.06898503750562668,-0.4809533953666687,-9.309124946594238,0.4376122057437897,0.1571275144815445,0.5695176124572754
1781536311348740,1754666808,0.027629069983959198,-0.8074201345443726,-0.5892517566680908,0.009581650607287884,0.05943329259753227,-0.4945429861545563,-9.30476188659668,0.3991931676864624,0.1688709259033203,0.5809409022331238
1781536311378207,1754683475,0.0276266410946846,-0.8074275255203247,-0.5892415046691895,0.009591321460902691,0.07266659289598465,-0.48930907249450684,-9.331119537353516,0.5187276005744934,0.13761064410209656,0.657996654510498
1781536311378957,1754700142,0.027633793652057648,-0.8074339032173157,-0.589232325553894,0.009594586677849293,0.07425778359174728,-0.48453831672668457,-9.303460121154785,0.5461332201957703,0.21145203709602356,0.6430643796920776
1781536311407141,1754716809,0.027628017589449883,-0.8074358105659485,-0.589229941368103,0.009594895876944065,0.0771101787686348,-0.47847864031791687,-9.313040733337402,0.4623924493789673,0.17500515282154083,0.6075011491775513
1781536311407658,1754733476,0.027637748047709465,-0.8074339628219604,-0.5892323851585388,0.009587486274540424,0.07904490828514099,-0.4847799241542816,-9.310812950134277,0.5176134705543518,0.2793385088443756,0.5618721842765808
1781536311437660,1754750143,0.027637377381324768,-0.8074349761009216,-0.5892307162284851,0.009600714780390263,0.08082228153944016,-0.4727245271205902,-9.304798126220703,0.5447116494178772,0.12512443959712982,0.6071169972419739
1781536311467449,1754766810,0.027628561481833458,-0.8074353933334351,-0.5892305374145508,0.009598721750080585,0.06060240790247917,-0.48425424098968506,-9.325711250305176,0.43624189496040344,0.1747618317604065,0.5899180769920349
1781536311468232,1754783477,0.027624180540442467,-0.8074355721473694,-0.589230477809906,0.009604763239622116,0.06910663098096848,-0.4615417420864105,-9.291208267211914,0.4933837950229645,0.1481630504131317,0.5912371277809143
1781536311498641,1754800144,0.02762247435748577,-0.8074343800544739,-0.5892322063446045,0.009605836123228073,0.05877496674656868,-0.4747164845466614,-9.307029724121094,0.48835089802742004,0.1858905553817749,0.571681797504425
1781536311499589,1754816811,0.027636922895908356,-0.8074350357055664,-0.5892306566238403,0.009605384431779385,0.07462257891893387,-0.48183581233024597,-9.320476531982422,0.5718355774879456,0.25989845395088196,0.5851925611495972
1781536311527426,1754833478,0.027634046971797943,-0.8074182271957397,-0.5892536044120789,0.009615865536034107,0.07597328722476959,-0.4986055791378021,-9.297112464904785,0.5195727944374084,0.12995243072509766,0.5023226141929626
1781536311527786,1754850145,0.027633409947156906,-0.8074182868003845,-0.5892537236213684,0.00960854534059763,0.05979776382446289,-0.48466190695762634,-9.324570655822754,0.46003609895706177,0.23692384362220764,0.5826953053474426
1781536311557104,1754866812,0.027627097442746162,-0.8074204921722412,-0.5892508029937744,0.009615463204681873,0.0765276551246643,-0.4780709743499756,-9.313255310058594,0.48590490221977234,0.13583053648471832,0.615530788898468
1781536311557472,1754883479,0.027619337663054466,-0.8074164390563965,-0.5892568230628967,0.009608913213014603,0.07621613144874573,-0.48507675528526306,-9.310548782348633,0.4241527318954468,0.20186010003089905,0.5260144472122192
1781536311587010,1754900146,0.027617240324616432,-0.8074240684509277,-0.5892466306686401,0.009602153673768044,0.07545275241136551,-0.4838009178638458,-9.324775695800781,0.45318466424942017,0.2307768017053604,0.6810224056243896
1781536311617220,1754916813,0.02761777676641941,-0.8074253797531128,-0.5892446637153625,0.00960792787373066,0.054562196135520935,-0.4806315302848816,-9.321327209472656,0.5193295478820801,0.1695752888917923,0.6071170568466187
1781536311617662,1754933480,0.027622755616903305,-0.8074260950088501,-0.5892432928085327,0.00961472187191248,0.08234932273626328,-0.4761970341205597,-9.30561351776123,0.54892498254776,0.17920565605163574,0.5577741265296936
1781536311646632,1754950147,0.027624856680631638,-0.8074211478233337,-0.5892497897148132,0.009624677710235119,0.06894569844007492,-0.49679240584373474,-9.31279468536377,0.5454800724983215,0.15062187612056732,0.5369125604629517
1781536311647291,1754966814,0.027611207216978073,-0.807420015335083,-0.5892520546913147,0.009624096564948559,0.06798043847084045,-0.4909774959087372,-9.305319786071777,0.4149577021598816,0.1461012214422226,0.571681797504425
1781536311677593,1754983481,0.027594977989792824,-0.8074198961257935,-0.5892529487609863,0.009629172272980213,0.0629945695400238,-0.49707499146461487,-9.301926612854004,0.42328184843063354,0.10489039868116379,0.5906223654747009
1781536311678162,1755000148,0.027606628835201263,-0.8074199557304382,-0.5892523527145386,0.009631731547415257,0.06977137923240662,-0.4884558320045471,-9.319610595703125,0.5679168105125427,0.23186536133289337,0.5944515466690063
1781536311706985,1755016815,0.02758672833442688,-0.8074243068695068,-0.5892472863197327,0.009633544832468033,0.07852667570114136,-0.483349472284317,-9.317146301269531,0.3894987106323242,0.10836092382669449,0.622920036315918
1781536311707496,1755033482,0.027591625228524208,-0.8074198961257935,-0.5892529487609863,0.009643645025789738,0.07034042477607727,-0.4777705669403076,-9.309075355529785,0.5612190365791321,0.1615200787782669,0.55226731300354
1781536311736926,1755050149,0.02759273163974285,-0.8074192404747009,-0.5892534255981445,0.00965605303645134,0.05654698982834816,-0.4742193818092346,-9.316445350646973,0.5496037006378174,0.13297472894191742,0.569351077079773
1781536311766999,1755066816,0.02760661579668522,-0.8074136972427368,-0.5892602205276489,0.009667590260505676,0.07933815568685532,-0.48552021384239197,-9.29586124420166,0.6173749566078186,0.18868236243724823,0.5250539183616638
1781536311767942,1755083483,0.027600377798080444,-0.8074079751968384,-0.5892682671546936,0.009677293710410595,0.07936711609363556,-0.48088547587394714,-9.305230140686035,0.4979044198989868,0.1176455169916153,0.5293440222740173
1781536311797242,1755100150,0.027582325041294098,-0.8074104189872742,-0.5892657041549683,0.009674765169620514,0.06767257302999496,-0.48675042390823364,-9.29456615447998,0.38259607553482056,0.13787955045700073,0.5806846618652344
1781536311798439,1755116817,0.027575384825468063,-0.8074091672897339,-0.5892677307128906,0.00968317873775959,0.06439998000860214,-0.4871617555618286,-9.303203582763672,0.4885173439979553,0.12237107008695602,0.5647279620170593
1781536311829078,1755133484,0.027572235092520714,-0.8074108362197876,-0.5892652869224548,0.009698606096208096,0.06237263232469559,-0.4835461378097534,-9.324552536010742,0.5376810431480408,0.09984470903873444,0.6048375368118286
1781536311829509,1755150151,0.027570325881242752,-0.8074089884757996,-0.5892679691314697,0.009698525071144104,0.06975392252206802,-0.4759860336780548,-9.316649436950684,0.4815123379230499,0.19156377017498016,0.5900589227676392
1781536311857468,1755166818,0.02755770832300186,-0.8074071407318115,-0.589271068572998,0.009703408926725388,0.07643070071935654,-0.482433944940567,-9.301700592041016,0.44258102774620056,0.11909265071153641,0.5659189820289612
1781536311859355,1755183485,0.027559947222471237,-0.8074051737785339,-0.58927321434021,0.009724936448037624,0.059800904244184494,-0.49290868639945984,-9.290382385253906,0.5925818085670471,0.08657732605934143,0.56598299741745
1781536311887074,1755200152,0.027550073340535164,-0.8074027299880981,-0.5892770290374756,0.009726102463901043,0.07986028492450714,-0.4855595529079437,-9.310698509216309,0.44267067313194275,0.1507115215063095,0.5612318515777588
1781536311917202,1755216819,0.027547571808099747,-0.8074045777320862,-0.5892744660377502,0.0097276596352458,0.06270164251327515,-0.47146928310394287,-9.306031227111816,0.4849828779697418,0.1791415959596634,0.6019431948661804
1781536311917757,1755233486,0.02754131704568863,-0.8074061274528503,-0.5892726182937622,0.009723157621920109,0.07370563596487045,-0.47241342067718506,-9.319631576538086,0.4392385482788086,0.19845357537269592,0.6143909692764282
1781536311947301,1755250153,0.02753862552344799,-0.8074113130569458,-0.5892657041549683,0.009723782539367676,0.06761892884969711,-0.48739057779312134,-9.309232711791992,0.48020607233047485,0.183124378323555,0.6158509254455566
1781536311947996,1755266820,0.02754492312669754,-0.8074179291725159,-0.5892561078071594,0.009728360921144485,0.06430843472480774,-0.4678727090358734,-9.310782432556152,0.5453904271125793,0.200169637799263,0.6728647351264954
1781536311976314,1755283487,0.027537576854228973,-0.8074246644973755,-0.589247465133667,0.009721742011606693,0.06020902469754219,-0.48737627267837524,-9.317146301269531,0.42526689171791077,0.20349928736686707,0.6057338714599609
1781536311976873,1755300154,0.02752348780632019,-0.807425320148468,-0.589247465133667,0.009715335443615913,0.05521306395530701,-0.4793190658092499,-9.345956802368164,0.38821807503700256,0.1759144365787506,0.5876386165618896
1781536312007365,1755316821,0.027513155713677406,-0.8074201941490173,-0.5892548561096191,0.009718823246657848,0.06815215200185776,-0.4825518727302551,-9.318133354187012,0.4481261670589447,0.13965964317321777,0.6193342208862305
1781536312008059,1755333488,0.027509037405252457,-0.8074168562889099,-0.5892593860626221,0.009731907397508621,0.0791843831539154,-0.4712153673171997,-9.293861389160156,0.522915244102478,0.10679854452610016,0.5488609075546265
1781536312036899,1755350155,0.027506642043590546,-0.8074148893356323,-0.5892618894577026,0.00973714143037796,0.06427159905433655,-0.48780539631843567,-9.327778816223145,0.500516951084137,0.15821604430675507,0.5707213282585144
1781536312066832,1755366822,0.027493976056575775,-0.8074197769165039,-0.589256227016449,0.009727038443088531,0.07351251691579819,-0.47757387161254883,-9.30522346496582,0.3811233341693878,0.20175759494304657,0.6071937680244446
1781536312067374,1755383489,0.027476364746689796,-0.8074187636375427,-0.5892585515975952,0.009723193012177944,0.07511437684297562,-0.48454755544662476,-9.282003402709961,0.3791767954826355,0.14635737240314484,0.5632553100585938
1781536312097070,1755400156,0.02747648023068905,-0.8074201941490173,-0.5892564654350281,0.009732541628181934,0.07472127676010132,-0.4729033410549164,-9.300453186035156,0.5308424234390259,0.14608845114707947,0.6031470894813538
1781536312097973,1755416823,0.027466798201203346,-0.8074154257774353,-0.5892634987831116,0.009734570980072021,0.0688566118478775,-0.4685332477092743,-9.318623542785645,0.4470120370388031,0.1457042396068573,0.5437384247779846
1781536312127291,1755433490,0.027452591806650162,-0.807412326335907,-0.5892683267593384,0.00973461288958788,0.07456362247467041,-0.49703922867774963,-9.314905166625977,0.41380515694618225,0.13841742277145386,0.5548415184020996
1781536312127747,1755450157,0.027455009520053864,-0.8074180483818054,-0.5892602801322937,0.009736856445670128,0.06300532072782516,-0.47618234157562256,-9.294413566589355,0.5140789151191711,0.19684001803398132,0.6660903096199036
1781536312156944,1755466824,0.02745315246284008,-0.8074190020561218,-0.5892589092254639,0.00974562019109726,0.06854516267776489,-0.4853270947933197,-9.316241264343262,0.5172804594039917,0.14159339666366577,0.6086921691894531
1781536312157302,1755483491,0.02744804136455059,-0.8074167370796204,-0.589262068271637,0.009749345481395721,0.06620275229215622,-0.4885134994983673,-9.304347038269043,0.4794889986515045,0.15388751029968262,0.5460307598114014
1781536312186725,1755500158,0.027452951297163963,-0.807415246963501,-0.589263916015625,0.009748285636305809,0.06535876542329788,-0.4994495213031769,-9.292759895324707,0.5146807432174683,0.22441205382347107,0.6106003522872925
1781536312216665,1755516825,0.027445802465081215,-0.8074135184288025,-0.5892664194107056,0.00975767895579338,0.07202481478452682,-0.4880092442035675,-9.315958976745605,0.49042555689811707,0.11614718288183212,0.5877025723457336
1781536312217297,1755533492,0.027443520724773407,-0.8074085712432861,-0.5892735719680786,0.009749745950102806,0.06443967670202255,-0.4898223876953125,-9.291780471801758,0.4478060007095337,0.22980353236198425,0.5255277156829834
1781536312247423,1755550159,0.027432899922132492,-0.8074080348014832,-0.5892746448516846,0.00975803378969431,0.07503240555524826,-0.4755533039569855,-9.324995994567871,0.46642643213272095,0.10854021459817886,0.6026219129562378
1781536312247673,1755566826,0.027428273111581802,-0.8074102401733398,-0.5892719030380249,0.009749941527843475,0.06616698950529099,-0.4879913628101349,-9.303513526916504,0.43351414799690247,0.22292651236057281,0.6008930802345276
1781536312276931,1755583493,0.02741391584277153,-0.8074082136154175,-0.5892752408981323,0.0097530921921134,0.07386656105518341,-0.4812716841697693,-9.323594093322754,0.4249594807624817,0.121320940554142,0.5833868384361267
1781536312277310,1755600160,0.027408456429839134,-0.8074119687080383,-0.5892707705497742,0.009736685082316399,0.07058750092983246,-0.47882893681526184,-9.311850547790527,0.3950822949409485,0.26603272557258606,0.614890456199646
1781536312307072,1755616827,0.02739524468779564,-0.8074169754981995,-0.5892645716667175,0.009732532314956188,0.07839404046535492,-0.48787692189216614,-9.31392765045166,0.4017927646636963,0.16616877913475037,0.619116485118866
1781536312307410,1755633494,0.027392970398068428,-0.8074188232421875,-0.5892622470855713,0.00972012896090746,0.07518976181745529,-0.46918410062789917,-9.294065475463867,0.42942890524864197,0.25498080253601074,0.5776239633560181
1781536312337262,1755650161,0.02739851363003254,-0.8074208498001099,-0.5892590284347534,0.00972770620137453,0.07391536980867386,-0.4871171712875366,-9.287578582763672,0.5534968972206116,0.17700296640396118,0.6059004068374634
1781536312337615,1755666828,0.027396878227591515,-0.8074209690093994,-0.589259147644043,0.00972849503159523,0.06568419933319092,-0.48734408617019653,-9.302180290222168,0.48589208722114563,0.18576249480247498,0.5974866151809692
1781536312366982,1755683495,0.027386106550693512,-0.8074261546134949,-0.5892524719238281,0.009730955585837364,0.07085539400577545,-0.4931625723838806,-9.284717559814453,0.4416205585002899,0.14055609703063965,0.6468807458877563
1781536312397134,1755700162,0.02738906815648079,-0.8074324727058411,-0.589243471622467,0.009738180786371231,0.06095230206847191,-0.4804772436618805,-9.30244255065918,0.5368998050689697,0.1706894338130951,0.674055814743042
1781536312397536,1755716829,0.027367375791072845,-0.807432234287262,-0.589244544506073,0.00974960159510374,0.06740760058164597,-0.48219791054725647,-9.3099946975708,0.41717323660850525,0.046301353722810745,0.6152105927467346
1781536312428877,1755733496,0.027347506955266,-0.807435154914856,-0.5892415642738342,0.009747239761054516,0.05597837269306183,-0.49435344338417053,-9.309114456176758,0.3715313971042633,0.12973472476005554,0.6226126551628113
1781536312429177,1755750163,0.027353435754776,-0.8074350953102112,-0.5892415046691895,0.009746759198606014,0.06702527403831482,-0.4777956008911133,-9.303417205810547,0.5227231979370117,0.2229393571615219,0.5910707116127014
1781536312457001,1755766830,0.027349622920155525,-0.8074395656585693,-0.5892353057861328,0.009756438434123993,0.06225103884935379,-0.4816114008426666,-9.315468788146973,0.5095198154449463,0.12781377136707306,0.6339079141616821
1781536312457341,1755783497,0.027354080229997635,-0.8074384331703186,-0.5892367362976074,0.009748758748173714,0.06779058277606964,-0.473976194858551,-9.3071870803833,0.48529016971588135,0.25683775544166565,0.5835021138191223
1781536312486891,1755800164,0.027339596301317215,-0.8074405789375305,-0.5892347097396851,0.00974369514733553,0.05066770315170288,-0.48213711380958557,-9.318280220031738,0.39045917987823486,0.16627123951911926,0.6152746677398682
1781536312487428,1755816831,0.027333414182066917,-0.8074427247047424,-0.5892320275306702,0.009741283021867275,0.058614037930965424,-0.486807644367218,-9.280879974365234,0.4474090039730072,0.1848660558462143,0.6109204888343811
1781536312516712,1755833498,0.027331707999110222,-0.8074414730072021,-0.5892337560653687,0.009742368943989277,0.06814105063676834,-0.465303897857666,-9.311156272888184,0.48686543107032776,0.18201026320457458,0.5658549666404724
1781536312548110,1755850165,0.02733396552503109,-0.8074378967285156,-0.5892384648323059,0.009747996926307678,0.05851786211133003,-0.484089732170105,-9.326973915100098,0.5274102687835693,0.17266161739826202,0.5501031279563904
1781536312548937,1755866832,0.02731565199792385,-0.8074389696121216,-0.5892378687858582,0.009747150354087353,0.06011573597788811,-0.4855310022830963,-9.311668395996094,0.38605380058288574,0.1275448352098465,0.6167858242988586
1781536312577035,1755883499,0.027315152809023857,-0.8074378967285156,-0.5892392992973328,0.009746120311319828,0.07113039493560791,-0.48297762870788574,-9.315655708312988,0.484752357006073,0.19911953806877136,0.5766250491142273
1781536312577502,1755900166,0.027311040088534355,-0.807439386844635,-0.589237630367279,0.00974476058036089,0.08225992321968079,-0.4712439775466919,-9.30810260772705,0.46298161149024963,0.1873120665550232,0.6096270680427551
1781536312607803,1755916833,0.02731192111968994,-0.8074432015419006,-0.589232325553894,0.009744727984070778,0.06524032354354858,-0.48203352093696594,-9.323150634765625,0.49602189660072327,0.20052821934223175,0.632435142993927
1781536312608455,1755933500,0.0273111741989851,-0.8074439764022827,-0.5892311334609985,0.00975084025412798,0.06505478918552399,-0.4734290540218353,-9.30024528503418,0.5124651789665222,0.15770377218723297,0.5782259106636047
1781536312637449,1755950167,0.027317959815263748,-0.807442307472229,-0.5892329216003418,0.009757326915860176,0.06455455720424652,-0.49083441495895386,-9.299569129943848,0.5553537011146545,0.18786273896694183,0.5955784916877747
1781536312638177,1755966834,0.027302561327815056,-0.8074432015419006,-0.5892325639724731,0.009760661981999874,0.06736469268798828,-0.46880507469177246,-9.298922538757324,0.4192734956741333,0.11504585295915604,0.6013926267623901
1781536312666816,1755983501,0.027289381250739098,-0.8074414134025574,-0.589235782623291,0.009750132448971272,0.0643860325217247,-0.48367130756378174,-9.296029090881348,0.37573185563087463,0.1998622715473175,0.5659445524215698
1781536312696088,1756000168,0.027280988171696663,-0.8074451684951782,-0.5892308950424194,0.009755375795066357,0.07179911434650421,-0.48352116346359253,-9.285496711730957,0.4658629894256592,0.1330387443304062,0.6253659725189209
1781536312696868,1756016835,0.02728056162595749,-0.8074467778205872,-0.5892283320426941,0.009767848998308182,0.0641428530216217,-0.47627928853034973,-9.329495429992676,0.5397427678108215,0.12409992516040802,0.5970768332481384
1781536312727294,1756033502,0.027283834293484688,-0.8074494004249573,-0.589224636554718,0.009773804806172848,0.07830463349819183,-0.4876873791217804,-9.302934646606445,0.5335957407951355,0.1758888065814972,0.6135457754135132
1781536312727856,1756050169,0.027293233200907707,-0.8074496984481812,-0.5892236232757568,0.009777897968888283,0.07429701834917068,-0.48397552967071533,-9.314414024353027,0.560232937335968,0.21054278314113617,0.5925562381744385
1781536312757231,1756066836,0.027289673686027527,-0.807451069355011,-0.5892219543457031,0.009775999933481216,0.07321211695671082,-0.4960557222366333,-9.320393562316895,0.4633784890174866,0.19307492673397064,0.6289517879486084
1781536312757791,1756083503,0.027295658364892006,-0.8074547648429871,-0.5892167687416077,0.009770631790161133,0.0702832043170929,-0.491481751203537,-9.294870376586914,0.5030142068862915,0.24855202436447144,0.5998045802116394
1781536312787401,1756100170,0.02728894352912903,-0.8074639439582825,-0.5892044305801392,0.009772591292858124,0.05633280426263809,-0.48310616612434387,-9.313802719116211,0.4622131586074829,0.15617983043193817,0.6299635171890259
1781536312787911,1756116837,0.02727491967380047,-0.8074600696563721,-0.5892099738121033,0.009787875227630138,0.0702328011393547,-0.48067086935043335,-9.317351341247559,0.4756598174571991,0.052128247916698456,0.5483999252319336
1781536312817036,1756133504,0.027281315997242928,-0.8074666857719421,-0.5892008543014526,0.00978385005146265,0.0732780396938324,-0.48182669281959534,-9.299724578857422,0.5098784565925598,0.24528641998767853,0.6647327542304993
1781536312847158,1756150171,0.027285253629088402,-0.807465136051178,-0.5892025828361511,0.009791478514671326,0.06438960880041122,-0.4920324683189392,-9.311967849731445,0.5441737771034241,0.16816657781600952,0.5767019391059875
1781536312847567,1756166838,0.027274155989289284,-0.8074663281440735,-0.5892015695571899,0.00979133415967226,0.06670665740966797,-0.4892466962337494,-9.312361717224121,0.4287501573562622,0.1512237787246704,0.6046838164329529
1781536312877427,1756183505,0.027263568714261055,-0.8074684143066406,-0.5891991853713989,0.009787636809051037,0.0622832253575325,-0.4843364953994751,-9.299673080444336,0.4174293875694275,0.17230302095413208,0.5978963971138
1781536312877969,1756200172,0.027252906933426857,-0.8074707388877869,-0.589196503162384,0.009787002578377724,0.07086576521396637,-0.49024802446365356,-9.31340217590332,0.42909595370292664,0.15594933927059174,0.6177719235420227
1781536312907272,1756216839,0.02725478820502758,-0.8074676990509033,-0.5892006754875183,0.009782737120985985,0.07030466198921204,-0.4663374423980713,-9.311163902282715,0.484112024307251,0.22656351327896118,0.5805438160896301
1781536312907846,1756233506,0.027246007695794106,-0.8074622750282288,-0.5892086625099182,0.009783693589270115,0.07550446689128876,-0.47828197479248047,-9.297273635864258,0.44664064049720764,0.15205618739128113,0.5267955660820007
1781536312937354,1756250173,0.02725120820105076,-0.8074652552604675,-0.5892043709754944,0.009784311056137085,0.06294839829206467,-0.4765153229236603,-9.311338424682617,0.5223132967948914,0.21297599375247955,0.6203843355178833
1781536312937967,1756266840,0.02725241892039776,-0.8074637651443481,-0.5892062783241272,0.00978770200163126,0.07270786911249161,-0.48025959730148315,-9.30495834350586,0.5116456747055054,0.18051187694072723,0.578661322593689
1781536312967251,1756283507,0.027246996760368347,-0.8074655532836914,-0.5892038941383362,0.009789954870939255,0.06635652482509613,-0.47242772579193115,-9.304150581359863,0.46990975737571716,0.1605852246284485,0.6100881099700928
1781536312997639,1756300174,0.027254728600382805,-0.8074628114700317,-0.5892072916030884,0.009795180521905422,0.06972173601388931,-0.4689766764640808,-9.304343223571777,0.5553665161132812,0.19607160985469818,0.5619361996650696
1781536312998325,1756316841,0.027253802865743637,-0.8074679970741272,-0.5891999006271362,0.009809368290007114,0.06571689993143082,-0.47818467020988464,-9.301294326782227,0.5429188013076782,0.11358591169118881,0.6526051163673401
1781536313027362,1756333508,0.027265142649412155,-0.8074705004692078,-0.589195966720581,0.009809914045035839,0.068070188164711,-0.47914981842041016,-9.31045913696289,0.5561733245849609,0.23753856122493744,0.6094861626625061
1781536313028479,1756350175,0.027249295264482498,-0.807470977306366,-0.589195966720581,0.009812491945922375,0.08163050562143326,-0.4894576072692871,-9.311274528503418,0.4134337604045868,0.11568614095449448,0.5913011431694031
1781536313057173,1756366842,0.027246693149209023,-0.8074684739112854,-0.5891994833946228,0.009810823947191238,0.07030823826789856,-0.4866252541542053,-9.324027061462402,0.46999940276145935,0.1924217939376831,0.5628710389137268
1781536313058487,1756383509,0.027250880375504494,-0.8074682950973511,-0.5891994833946228,0.009807733818888664,0.061167046427726746,-0.4838752746582031,-9.304937362670898,0.5015414357185364,0.22877903282642365,0.5956296920776367
1781536313087191,1756400176,0.027153365314006805,-0.8074175119400024,-0.5892720818519592,0.00990526657551527,0.07563678175210953,-0.47490960359573364,-9.296887397766113,0.47623616456985474,0.17115047574043274,0.608295202255249
1781536313117181,1756416843,0.02715170755982399,-0.8074209690093994,-0.5892675518989563,0.009900250472128391,0.05742673575878143,-0.47945496439933777,-9.30605697631836,0.46161124110221863,0.21595987677574158,0.6023914813995361
1781536313117580,1756433510,0.027157429605722427,-0.807422935962677,-0.589264452457428,0.009906168095767498,0.061947062611579895,-0.4852484166622162,-9.323015213012695,0.5470680594444275,0.18455870449543,0.5876641869544983
1781536313147338,1756450177,0.027165111154317856,-0.8074244856834412,-0.5892619490623474,0.009907649829983711,0.06784508377313614,-0.48836666345596313,-9.301971435546875,0.5395251512527466,0.21848274767398834,0.6083720326423645
1781536313147934,1756466844,0.02715306356549263,-0.8074249625205994,-0.5892617702484131,0.009913908317685127,0.07958134263753891,-0.4876087009906769,-9.31594467163086,0.4485616385936737,0.1142902672290802,0.6431284546852112
1781536313177619,1756483511,0.027162356302142143,-0.8074184060096741,-0.5892702341079712,0.009919880889356136,0.06324522942304611,-0.4839359521865845,-9.318323135375977,0.5675197839736938,0.1970192790031433,0.5091484785079956
1781536313178298,1756500178,0.027153048664331436,-0.8074186444282532,-0.5892702341079712,0.009929087944328785,0.07087327539920807,-0.47946569323539734,-9.297220230102539,0.4763641953468323,0.10669608414173126,0.6020585298538208
1781536313206494,1756516845,0.027147166430950165,-0.8074211478233337,-0.5892671346664429,0.009925312362611294,0.0672437772154808,-0.4715944230556488,-9.31182861328125,0.4429267942905426,0.19185832142829895,0.6010339856147766
1781536313207281,1756533512,0.02714979276061058,-0.8074218034744263,-0.5892661809921265,0.009921836666762829,0.07324787974357605,-0.482201486825943,-9.322976112365723,0.49143722653388977,0.2246553897857666,0.5900589823722839
1781536313236935,1756550179,0.027140401303768158,-0.8074246048927307,-0.5892626643180847,0.009922155179083347,0.06571996212005615,-0.4884348213672638,-9.284523963928223,0.43981486558914185,0.15547549724578857,0.6157100796699524
1781536313267126,1756566846,0.027146829292178154,-0.807416558265686,-0.5892733335494995,0.009926043450832367,0.06901364773511887,-0.48231592774391174,-9.308548927307129,0.5432005524635315,0.1960972249507904,0.4877106249332428
1781536313267677,1756583513,0.027148587629199028,-0.8074159622192383,-0.5892741680145264,0.009925613179802895,0.07511503249406815,-0.47297126054763794,-9.307841300964355,0.49905696511268616,0.20319192111492157,0.5686339139938354
1781536313297219,1756600180,0.02714177966117859,-0.8074092864990234,-0.5892837047576904,0.009920593351125717,0.0610029436647892,-0.4762578308582306,-9.306002616882324,0.4331299364566803,0.1933310478925705,0.5212504267692566
1781536313297620,1756616847,0.027137210592627525,-0.8074051141738892,-0.5892894864082336,0.009927723556756973,0.06456484645605087,-0.47856804728507996,-9.291919708251953,0.49490776658058167,0.1343706250190735,0.5280889272689819
1781536313327277,1756633514,0.02712700515985489,-0.8073989152908325,-0.5892983078956604,0.009934516623616219,0.09293165057897568,-0.48614248633384705,-9.31005859375,0.46172651648521423,0.11496900022029877,0.545121431350708
1781536313328129,1756650181,0.02712399698793888,-0.8073958158493042,-0.589302659034729,0.009940063580870628,0.07125235348939896,-0.46872633695602417,-9.309715270996094,0.4973025619983673,0.14882898330688477,0.5249130725860596
1781536313357137,1756666848,0.02712533064186573,-0.8073960542678833,-0.5893020629882812,0.00994896050542593,0.06489385664463043,-0.4909345805644989,-9.291400909423828,0.533967137336731,0.15128780901432037,0.6079366207122803
1781536313357721,1756683515,0.027136916294693947,-0.8073938488960266,-0.5893044471740723,0.009952801279723644,0.06943921744823456,-0.47720909118652344,-9.314754486083984,0.5711183547973633,0.21854674816131592,0.5528693199157715
1781536313386961,1756700182,0.027119776234030724,-0.8074021339416504,-0.5892935991287231,0.009965497069060802,0.06372483819723129,-0.4928084909915924,-9.296815872192383,0.4463460445404053,0.056379951536655426,0.6770653128623962
1781536313417187,1756716849,0.027109600603580475,-0.8074058294296265,-0.5892893075942993,0.009959823451936245,0.06349556148052216,-0.4913351237773895,-9.31045913696289,0.41105177998542786,0.18468676507472992,0.6107284426689148
1781536313417877,1756733516,0.02710898406803608,-0.8074131011962891,-0.5892794728279114,0.009951788000762463,0.07467120885848999,-0.4877195656299591,-9.299161911010742,0.4542604088783264,0.23762820661067963,0.6534503698348999
1781536313447116,1756750183,0.027108367532491684,-0.8074137568473816,-0.589278519153595,0.009954487904906273,0.07559386640787125,-0.476697713136673,-9.30667495727539,0.4980453550815582,0.17695172131061554,0.599125862121582
1781536313447648,1756766850,0.02709706872701645,-0.8074169158935547,-0.589274525642395,0.00995777640491724,0.05637533217668533,-0.4766691029071808,-9.325296401977539,0.4410698115825653,0.13057994842529297,0.6175541877746582
1781536313477366,1756783517,0.027092084288597107,-0.8074213862419128,-0.5892687439918518,0.00995978806167841,0.06100651994347572,-0.48545941710472107,-9.321266174316406,0.4706781506538391,0.16408134996891022,0.6391072869300842
1781536313477930,1756800184,0.027085162699222565,-0.8074215054512024,-0.5892690420150757,0.009962287731468678,0.0626412108540535,-0.47652962803840637,-9.287982940673828,0.4621875286102295,0.1522482931613922,0.592095136642456
1781536313507455,1756816851,0.02709180675446987,-0.8074312806129456,-0.5892553329467773,0.009951276704668999,0.07054457068443298,-0.48970112204551697,-9.308066368103027,0.4819733202457428,0.28520381450653076,0.702319324016571
1781536313508089,1756833518,0.027087857946753502,-0.8074354529380798,-0.5892496109008789,0.009952742606401443,0.06725415587425232,-0.4912421405315399,-9.284721374511719,0.4741743206977844,0.17104800045490265,0.6359312534332275
1781536313537075,1756850185,0.027086975052952766,-0.8074352741241455,-0.5892502069473267,0.009951857849955559,0.07292602211236954,-0.48745492100715637,-9.307083129882812,0.4819093346595764,0.1954697072505951,0.5911346673965454
1781536313568152,1756866852,0.027071157470345497,-0.8074348568916321,-0.5892514586448669,0.009952574037015438,0.06823372840881348,-0.4767836034297943,-9.293669700622559,0.405288964509964,0.12620016932487488,0.593183696269989
1781536313568909,1756883519,0.027072232216596603,-0.8074353933334351,-0.5892503261566162,0.009962945245206356,0.06934265792369843,-0.4676928222179413,-9.31162166595459,0.5383341908454895,0.1410299390554428,0.603941023349762
1781536313598619,1756900186,0.027066871523857117,-0.8074327111244202,-0.5892544388771057,0.009961677715182304,0.059032123535871506,-0.47150513529777527,-9.301565170288086,0.45570749044418335,0.1783476173877716,0.5590931177139282
1781536313599247,1756916853,0.02706398442387581,-0.8074339628219604,-0.5892528295516968,0.009961950592696667,0.06424298882484436,-0.49255460500717163,-9.296368598937988,0.4754805266857147,0.18053750693798065,0.5960139632225037
1781536313628494,1756933520,0.02706310898065567,-0.8074377179145813,-0.5892474055290222,0.009973294101655483,0.07547109574079514,-0.48219820857048035,-9.326930046081543,0.5310344696044922,0.12885108590126038,0.6435126066207886
1781536313628738,1756950187,0.02707246132194996,-0.8074363470077515,-0.5892486572265625,0.009983190335333347,0.07613030076026917,-0.4847477376461029,-9.312905311584473,0.582669734954834,0.17604248225688934,0.5743712186813354
1781536313659764,1756966854,0.027082856744527817,-0.8074361085891724,-0.589248538017273,0.009984978474676609,0.0773998573422432,-0.4646745026111603,-9.309046745300293,0.5556738972663879,0.22471942007541656,0.5692614316940308
1781536313660460,1756983521,0.02708675153553486,-0.8074408769607544,-0.5892418026924133,0.009982934221625328,0.06587693095207214,-0.4702957570552826,-9.307107925415039,0.5032575130462646,0.22226059436798096,0.6448573470115662
1781536313688101,1757000188,0.027087172493338585,-0.8074394464492798,-0.5892435908317566,0.009989062324166298,0.07354509830474854,-0.47879335284233093,-9.324409484863281,0.5177415013313293,0.16046997904777527,0.5706445574760437
1781536313718847,1757016855,0.027076028287410736,-0.8074386715888977,-0.5892453193664551,0.009988095611333847,0.07299754023551941,-0.4951831102371216,-9.32602596282959,0.42408865690231323,0.15512971580028534,0.608500063419342
1781536313719329,1757033522,0.027067285031080246,-0.8074436187744141,-0.5892390608787537,0.00998217985033989,0.06165023893117905,-0.47951218485832214,-9.324288368225098,0.4176214933395386,0.19124363362789154,0.624059796333313
1781536313749893,1757050189,0.02707272581756115,-0.8074394464492798,-0.5892444849014282,0.009983418509364128,0.058585427701473236,-0.4763794243335724,-9.31404972076416,0.5258224010467529,0.20757173001766205,0.5476827621459961
1781536313750505,1757066856,0.027066253125667572,-0.8074402809143066,-0.5892435312271118,0.009984815493226051,0.07130957394838333,-0.4892430305480957,-9.31581974029541,0.4603562355041504,0.1583569198846817,0.5767531394958496
1781536313779854,1757083523,0.027064483612775803,-0.807440459728241,-0.5892433524131775,0.009980099275708199,0.07198227941989899,-0.4962594211101532,-9.298064231872559,0.4610093832015991,0.21338579058647156,0.6095629930496216
1781536313780499,1757100190,0.027066456153988838,-0.8074372410774231,-0.5892478227615356,0.009979771450161934,0.0656198263168335,-0.47492390871047974,-9.300946235656738,0.49977418780326843,0.20316633582115173,0.572270929813385
1781536313808862,1757116857,0.02706516720354557,-0.807437539100647,-0.5892475247383118,0.009979619644582272,0.07433862239122391,-0.48436152935028076,-9.293811798095703,0.4824216067790985,0.18887442350387573,0.5913011431694031
1781536313809247,1757133524,0.027062708511948586,-0.8074387907981873,-0.5892461538314819,0.009970968589186668,0.07085897028446198,-0.4800342917442322,-9.313745498657227,0.44167178869247437,0.23040542006492615,0.5809151530265808
1781536313838134,1757150191,0.027067039161920547,-0.8074368834495544,-0.5892483592033386,0.009978646412491798,0.07358046621084213,-0.4789828956127167,-9.295113563537598,0.5450702905654907,0.1687684953212738,0.5933886170387268
1781536313869329,1757166858,0.027065826579928398,-0.8074330687522888,-0.5892534852027893,0.009989866986870766,0.06634937226772308,-0.47309646010398865,-9.308609962463379,0.5292800068855286,0.12462498247623444,0.5475930571556091
1781536313897287,1757183525,0.027055716142058372,-0.807430624961853,-0.5892571210861206,0.010003686882555485,0.06507659703493118,-0.4831313490867615,-9.316023826599121,0.490374356508255,0.07411674410104752,0.5554946064949036
1781536313927564,1757200192,0.027039971202611923,-0.8074350357055664,-0.5892518162727356,0.009999397210776806,0.07819019258022308,-0.48851707577705383,-9.315254211425781,0.3850677013397217,0.15370820462703705,0.6269412040710449
1781536313928039,1757216859,0.02704046666622162,-0.8074327707290649,-0.5892547369003296,0.010004994459450245,0.060491546988487244,-0.47611477971076965,-9.292595863342285,0.5157052278518677,0.1631464809179306,0.5643181800842285
1781536313928571,1757233526,0.02702758088707924,-0.807439386844635,-0.5892462134361267,0.009999612346291542,0.059236299246549606,-0.47955867648124695,-9.310516357421875,0.39636290073394775,0.1718291938304901,0.6497108936309814
1781536313956860,1757250193,0.02701958268880844,-0.8074395656585693,-0.5892463326454163,0.010005516931414604,0.06609152257442474,-0.4912135899066925,-9.305578231811523,0.4695640504360199,0.12749361991882324,0.5900717973709106
1781536313957201,1757266860,0.027015769854187965,-0.8074424266815186,-0.5892425775527954,0.01000258233398199,0.06878834962844849,-0.48660022020339966,-9.325647354125977,0.45675763487815857,0.1943555623292923,0.6180280447006226
1781536313957562,1757283527,0.027007125318050385,-0.807442843914032,-0.5892426371574402,0.010004127398133278,0.0691491961479187,-0.4709329605102539,-9.296966552734375,0.44825422763824463,0.14894424378871918,0.5884965658187866
1781536313987822,1757300194,0.027005312964320183,-0.8074427247047424,-0.5892425179481506,0.010016263462603092,0.070500947535038,-0.48628199100494385,-9.308331489562988,0.5292288661003113,0.11774797737598419,0.5868829488754272
1781536314017553,1757316861,0.026995377615094185,-0.8074434399604797,-0.5892418622970581,0.010021327063441277,0.06662473827600479,-0.4883418381214142,-9.312171936035156,0.45522090792655945,0.12450973689556122,0.5983574986457825
1781536314018140,1757333528,0.026997700333595276,-0.8074394464492798,-0.5892471075057983,0.010026784613728523,0.06548751145601273,-0.48904991149902344,-9.309450149536133,0.5255277156829834,0.16995947062969208,0.5354654788970947
1781536314047101,1757350195,0.02699798345565796,-0.8074468970298767,-0.589236855506897,0.010031824000179768,0.0825674757361412,-0.4758894741535187,-9.299365997314453,0.512055516242981,0.16552847623825073,0.6294640898704529
1781536314047519,1757366862,0.026995258405804634,-0.8074397444725037,-0.5892466902732849,0.01003167126327753,0.07975982129573822,-0.4811859428882599,-9.309679985046387,0.47440484166145325,0.1816004514694214,0.5341848731040955
1781536314076826,1757383529,0.026982583105564117,-0.8074355721473694,-0.5892531871795654,0.010035282000899315,0.06393186002969742,-0.4832671880722046,-9.313069343566895,0.4350380599498749,0.11799127608537674,0.5091228485107422
1781536314077264,1757400196,0.02697744034230709,-0.8074274659156799,-0.5892643928527832,0.01004069671034813,0.06885272264480591,-0.4774200916290283,-9.300488471984863,0.4836381673812866,0.14024874567985535,0.5190093517303467
1781536314107688,1757416863,0.02699054405093193,-0.807428240776062,-0.5892624855041504,0.010045105591416359,0.06625336408615112,-0.4724942445755005,-9.312261581420898,0.5803773999214172,0.22151784598827362,0.6054649949073792
1781536314108012,1757433530,0.02698040008544922,-0.8074257969856262,-0.5892662405967712,0.010048915632069111,0.06755781173706055,-0.48526278138160706,-9.29245662689209,0.4492403268814087,0.1289791464805603,0.5555458068847656
1781536314137429,1757450197,0.026985855773091316,-0.8074283003807068,-0.5892625451087952,0.010051717981696129,0.06892941892147064,-0.48542463779449463,-9.292825698852539,0.5311369299888611,0.20036174356937408,0.632076621055603
1781536314137960,1757466864,0.026988353580236435,-0.8074241876602173,-0.5892680287361145,0.010047786869108677,0.06629215180873871,-0.4838143587112427,-9.328862190246582,0.4878770709037781,0.2236308753490448,0.555866003036499
1781536314168951,1757483531,0.026991115882992744,-0.8074318766593933,-0.589257538318634,0.010048789903521538,0.06124107539653778,-0.48748287558555603,-9.304481506347656,0.508892297744751,0.19900426268577576,0.6553072929382324
1781536314198784,1757500198,0.026998300105333328,-0.8074303865432739,-0.5892590880393982,0.0100591741502285,0.06785853207111359,-0.4855559766292572,-9.301128387451172,0.5717074275016785,0.16390205919742584,0.587740957736969
1781536314199745,1757516865,0.0269915908575058,-0.8074321746826172,-0.5892569422721863,0.010062606073915958,0.06699308753013611,-0.4813682436943054,-9.31850528717041,0.46645209193229675,0.1457170695066452,0.5960652232170105
1781536314227428,1757533532,0.02698376402258873,-0.8074317574501038,-0.5892579555511475,0.010054586455225945,0.06186838448047638,-0.48812010884284973,-9.296125411987305,0.4129343628883362,0.2076229453086853,0.6338823437690735
1781536314227973,1757550199,0.02698734775185585,-0.8074337840080261,-0.5892547369003296,0.010066317394375801,0.059124577790498734,-0.47984689474105835,-9.304533004760742,0.5570442080497742,0.14219528436660767,0.6168753504753113
1781536314257328,1757566866,0.026986759155988693,-0.8074368238449097,-0.5892505645751953,0.010066798888146877,0.07651295512914658,-0.47936198115348816,-9.30913257598877,0.4883893132209778,0.18683822453022003,0.604440450668335
1781536314257902,1757583533,0.026985231786966324,-0.807437002658844,-0.5892501473426819,0.010071231983602047,0.07951339334249496,-0.47631147503852844,-9.305642127990723,0.4994412064552307,0.1604955941438675,0.5790711045265198
1781536314286711,1757600200,0.026991883292794228,-0.8074390888214111,-0.5892470479011536,0.01008087582886219,0.08250043541193008,-0.47702285647392273,-9.308012008666992,0.5654194951057434,0.16625842452049255,0.6188347935676575
1781536314287433,1757616867,0.026980487629771233,-0.8074429035186768,-0.5892421007156372,0.010089297778904438,0.06750091165304184,-0.48776963353157043,-9.31033706665039,0.4602538049221039,0.09984469413757324,0.6283754706382751
1781536314317431,1757633534,0.02697225660085678,-0.8074398040771484,-0.5892466902732849,0.010086819529533386,0.06521604210138321,-0.490798681974411,-9.301389694213867,0.43398794531822205,0.17184200882911682,0.5629094839096069
1781536314347095,1757650201,0.026965511962771416,-0.8074449300765991,-0.5892401337623596,0.010097299702465534,0.07888355851173401,-0.48577773571014404,-9.297778129577637,0.4943186640739441,0.10733641684055328,0.638326108455658
1781536314347748,1757666868,0.026964811608195305,-0.8074517846107483,-0.5892305374145508,0.01009923592209816,0.054618820548057556,-0.49929600954055786,-9.304126739501953,0.493102103471756,0.1799612194299698,0.6621586084365845
1781536314376985,1757683535,0.026957960799336433,-0.8074491024017334,-0.5892342925071716,0.010107292793691158,0.05817773938179016,-0.46153101325035095,-9.304450988769531,0.4843426048755646,0.11845233291387558,0.5609244704246521
1781536314377466,1757700202,0.026954615488648415,-0.8074548840522766,-0.5892266035079956,0.010108103044331074,0.07870201021432877,-0.47895774245262146,-9.305419921875,0.4736236333847046,0.17563268542289734,0.6586498022079468
1781536314406833,1757716869,0.026945888996124268,-0.8074573874473572,-0.5892234444618225,0.010111904703080654,0.07747495174407959,-0.48033827543258667,-9.302337646484375,0.4563734531402588,0.1354975700378418,0.6103571057319641
1781536314407443,1757733536,0.02693897671997547,-0.8074575662612915,-0.5892236232757568,0.010119463317096233,0.07235024869441986,-0.4887852966785431,-9.309282302856445,0.4817941188812256,0.12170515209436417,0.5924537777900696
1781536314437442,1757750203,0.02694152109324932,-0.8074641227722168,-0.5892141461372375,0.010127111338078976,0.06728655844926834,-0.4910005033016205,-9.30074405670166,0.5345562100410461,0.15991929173469543,0.640221357345581
1781536314437972,1757766870,0.02693059854209423,-0.8074718713760376,-0.5892038345336914,0.010131515562534332,0.061410631984472275,-0.493659645318985,-9.309042930603027,0.44605159759521484,0.12485551089048386,0.6722884774208069
1781536314467309,1757783537,0.026942426338791847,-0.8074758648872375,-0.5891979336738586,0.010136226192116737,0.06610526144504547,-0.46918758749961853,-9.30224609375,0.574358344078064,0.21306563913822174,0.6110613346099854
1781536314497567,1757800204,0.02693975903093815,-0.8074774146080017,-0.5891960263252258,0.010127230547368526,0.06720014661550522,-0.46795400977134705,-9.289834976196289,0.4379323124885559,0.2314939796924591,0.6124316453933716
1781536314498039,1757816871,0.02693711221218109,-0.8074763417243958,-0.5891976356506348,0.010129477828741074,0.0816376581788063,-0.47446614503860474,-9.291343688964844,0.4837022125720978,0.1688581109046936,0.5960906744003296
1781536314527315,1757833538,0.026933088898658752,-0.8074792623519897,-0.5891936421394348,0.010140408761799335,0.06530154496431351,-0.488620787858963,-9.298078536987305,0.5111590623855591,0.11519952118396759,0.62356036901474
1781536314527901,1757850205,0.026925165206193924,-0.8074827790260315,-0.5891890525817871,0.010146552696824074,0.061278313398361206,-0.4888139069080353,-9.313273429870605,0.4702683389186859,0.12523970007896423,0.6131744384765625
1781536314557504,1757866872,0.026904894039034843,-0.8074867725372314,-0.5891847014427185,0.010139119811356068,0.07000454515218735,-0.4762505888938904,-9.288640975952148,0.3462260365486145,0.15199215710163116,0.6391200423240662
1781536314558117,1757883539,0.02689358778297901,-0.8074838519096375,-0.5891892313957214,0.010137702338397503,0.06918530911207199,-0.4778921604156494,-9.298410415649414,0.4208998680114746,0.15290141105651855,0.5649328827857971
1781536314587274,1757900206,0.02689838781952858,-0.8074814081192017,-0.5891924500465393,0.010130183771252632,0.07825814187526703,-0.4846583306789398,-9.32790756225586,0.4860841929912567,0.25060102343559265,0.5418046116828918
1781536314587827,1757916873,0.026897311210632324,-0.8074743747711182,-0.5892019271850586,0.010134953074157238,0.0660775825381279,-0.48367130756378174,-9.329366683959961,0.5027836561203003,0.15994490683078766,0.5435078740119934
1781536314617017,1757933540,0.02689930610358715,-0.807467520236969,-0.5892113447189331,0.010143864899873734,0.07465369254350662,-0.4895613491535187,-9.295063018798828,0.5370663404464722,0.14757397770881653,0.5124781131744385
1781536314645889,1757950207,0.026889139786362648,-0.8074702620506287,-0.5892080068588257,0.010146589949727058,0.06879192590713501,-0.4784393310546875,-9.299637794494629,0.4439641237258911,0.1344730705022812,0.6009443402290344
1781536314646592,1757966874,0.02689390443265438,-0.8074696063995361,-0.5892085433006287,0.010143338702619076,0.06271952390670776,-0.47302135825157166,-9.314268112182617,0.5026300549507141,0.22844605147838593,0.5870494246482849
1781536314677204,1757983541,0.026895882561802864,-0.8074699640274048,-0.5892080664634705,0.010152296163141727,0.07303014397621155,-0.47922608256340027,-9.300541877746582,0.5366180539131165,0.14921317994594574,0.5924408435821533
1781536314677771,1758000208,0.02688620239496231,-0.8074730038642883,-0.5892040729522705,0.010148534551262856,0.07157063484191895,-0.48969364166259766,-9.29919719696045,0.4199777841567993,0.1736476868391037,0.62583988904953
1781536314706995,1758016875,0.026881126686930656,-0.8074706196784973,-0.5892078876495361,0.010144222527742386,0.07150236517190933,-0.4812038540840149,-9.292556762695312,0.4437336027622223,0.19349752366542816,0.5593621134757996
1781536314707394,1758033542,0.026883870363235474,-0.8074748516082764,-0.5892020463943481,0.010139628313481808,0.07142401486635208,-0.4771876335144043,-9.279778480529785,0.4855719804763794,0.22865095734596252,0.6349964141845703
1781536314737386,1758050209,0.026896923780441284,-0.8074784874916077,-0.589196503162384,0.010143052786588669,0.0786823034286499,-0.4884793162345886,-9.289361953735352,0.5756005644798279,0.22492432594299316,0.6154283285140991
1781536314767373,1758066876,0.02688451297581196,-0.8074790835380554,-0.5891960263252258,0.010143541730940342,0.07378821074962616,-0.47741296887397766,-9.315619468688965,0.4223982095718384,0.13718801736831665,0.5814914703369141
1781536314767907,1758083543,0.02687225118279457,-0.8074777126312256,-0.5891982913017273,0.010154356248676777,0.06505836546421051,-0.4839824438095093,-9.31044864654541,0.4653891921043396,0.07888071238994598,0.5474137663841248
1781536314797057,1758100210,0.026866145431995392,-0.8074753880500793,-0.5892015099525452,0.010165879502892494,0.0650118738412857,-0.4737938344478607,-9.299100875854492,0.50193852186203,0.1021498516201973,0.5815043449401855
1781536314797643,1758116877,0.026872431859374046,-0.8074778318405151,-0.5891979932785034,0.010163028724491596,0.06928583234548569,-0.4814826250076294,-9.301407814025879,0.5129519104957581,0.2307768017053604,0.5825928449630737
1781536314827192,1758133544,0.026861924678087234,-0.8074719905853271,-0.5892062783241272,0.010170677676796913,0.07601228356361389,-0.4685510993003845,-9.30345630645752,0.4623028635978699,0.10367381572723389,0.523350715637207
1781536314827710,1758150211,0.02686425670981407,-0.8074706196784973,-0.5892079472541809,0.01017217431217432,0.06982902437448502,-0.4768514931201935,-9.316381454467773,0.5081495642662048,0.19176867604255676,0.5837582349777222
1781536314857230,1758166878,0.02686089277267456,-0.8074668049812317,-0.589213490486145,0.010159264318645,0.06653564423322678,-0.48244819045066833,-9.294637680053711,0.41828739643096924,0.24795013666152954,0.5526387691497803
1781536314857736,1758183545,0.02686687931418419,-0.8074634075164795,-0.589218258857727,0.010153448209166527,0.07801853865385056,-0.478435754776001,-9.294788360595703,0.49904415011405945,0.24609321355819702,0.551358163356781
1781536314887176,1758200212,0.026866860687732697,-0.8074631690979004,-0.5892183780670166,0.010156640782952309,0.0825607180595398,-0.4750383496284485,-9.309836387634277,0.5019128322601318,0.17276404798030853,0.5922360420227051
1781536314917125,1758216879,0.02685982920229435,-0.8074769377708435,-0.5891996622085571,0.010163954459130764,0.068642757833004,-0.49886554479599,-9.341289520263672,0.47918152809143066,0.12317787110805511,0.7076979875564575
1781536314917606,1758233546,0.02686479687690735,-0.8074782490730286,-0.5891976952552795,0.010167177766561508,0.06891351193189621,-0.487547904253006,-9.30351734161377,0.5295233130455017,0.19327983260154724,0.6105747222900391
1781536314947450,1758250213,0.026871992275118828,-0.8074710965156555,-0.5892072916030884,0.010162190534174442,0.06431451439857483,-0.4914495646953583,-9.306482315063477,0.5094173550605774,0.24500468373298645,0.5089178681373596
1781536314947890,1758266880,0.026856649667024612,-0.8074799180030823,-0.589195966720581,0.010163269005715847,0.0738951712846756,-0.47254928946495056,-9.313316345214844,0.4078117609024048,0.12356206029653549,0.6662951111793518
1781536314977223,1758283547,0.026856951415538788,-0.8074851036071777,-0.5891886949539185,0.010160108096897602,0.0705728754401207,-0.46924132108688354,-9.308377265930176,0.47754234075546265,0.21049155294895172,0.6463300585746765
1781536314977655,1758300214,0.02686011977493763,-0.8074805736541748,-0.5891948938369751,0.010150695219635963,0.06686758249998093,-0.4801560342311859,-9.300843238830566,0.4685395061969757,0.25490400195121765,0.554021954536438
1781536315007416,1758316881,0.026863448321819305,-0.8074836134910583,-0.5891905426979065,0.01015409454703331,0.08045035600662231,-0.47486668825149536,-9.288250923156738,0.5210711359977722,0.1854935586452484,0.6199234127998352
1781536315008516,1758333548,0.026872579008340836,-0.807487964630127,-0.5891839861869812,0.010166112333536148,0.0750737115740776,-0.48335862159729004,-9.302619934082031,0.5886759161949158,0.15962475538253784,0.6051321029663086
1781536315037273,1758350215,0.026879729703068733,-0.8074910640716553,-0.5891792178153992,0.010173519141972065,0.07628658413887024,-0.4884261190891266,-9.304130554199219,0.5586706399917603,0.17800186574459076,0.6144934892654419
1781536315067181,1758366882,0.026865242049098015,-0.8074898719787598,-0.5891816020011902,0.01017748098820448,0.06784065067768097,-0.4949721097946167,-9.308570861816406,0.42481866478919983,0.10813041776418686,0.5608348846435547
1781536315067681,1758383549,0.026861347258090973,-0.807485818862915,-0.5891873240470886,0.010182804428040981,0.06843072921037674,-0.49396005272865295,-9.308978080749512,0.4887094795703888,0.14514076709747314,0.5759079456329346
1781536315097207,1758400216,0.026703480631113052,-0.8074697256088257,-0.5892156958580017,0.0102237518876791,0.0770958736538887,-0.4960986375808716,-9.32531452178955,0.4838559329509735,0.1330643892288208,0.5727063417434692
1781536315097703,1758416883,0.026704352349042892,-0.8074690103530884,-0.5892165303230286,0.010225770995020866,0.06364218145608902,-0.47851797938346863,-9.313220024108887,0.5029245615005493,0.18177972733974457,0.5622435808181763
1781536315127633,1758433550,0.02668979950249195,-0.8074763417243958,-0.589206874370575,0.010239710099995136,0.07952412217855453,-0.47828197479248047,-9.288762092590332,0.4644926190376282,0.05673852190375328,0.6779105067253113
1781536315128060,1758450217,0.026677589863538742,-0.8074746131896973,-0.5892096757888794,0.010246878489851952,0.06385675817728043,-0.4820798933506012,-9.308141708374023,0.45022642612457275,0.10313592851161957,0.6123548150062561
1781536315157300,1758466884,0.02667238563299179,-0.807475209236145,-0.5892091393470764,0.01024226937443018,0.046115536242723465,-0.4704393148422241,-9.296576499938965,0.44204315543174744,0.19458608329296112,0.5818884968757629
1781536315157755,1758483551,0.026663128286600113,-0.8074754476547241,-0.5892091989517212,0.01024594996124506,0.07295820862054825,-0.490126371383667,-9.285994529724121,0.4531334340572357,0.13218073546886444,0.5832971930503845
1781536315187427,1758500218,0.02666579931974411,-0.8074734210968018,-0.5892118811607361,0.010246236808598042,0.06605652719736099,-0.4822765588760376,-9.33309268951416,0.5051272511482239,0.20104047656059265,0.5997405648231506
1781536315217292,1758516885,0.02667326107621193,-0.8074712753295898,-0.5892143845558167,0.010248768143355846,0.07607598602771759,-0.4885479211807251,-9.290670394897461,0.5406136512756348,0.20891638100147247,0.6180536150932312
1781536315217700,1758533552,0.026667706668376923,-0.8074744343757629,-0.589210569858551,0.010247474536299706,0.07779324054718018,-0.4677393138408661,-9.323140144348145,0.45306938886642456,0.17622177302837372,0.6255069971084595
1781536315247421,1758550219,0.02665962651371956,-0.8074754476547241,-0.5892095565795898,0.010247577913105488,0.0742921307682991,-0.47222745418548584,-9.298761367797852,0.44511666893959045,0.15656401216983795,0.5850131511688232
1781536315248020,1758566886,0.026659196242690086,-0.8074767589569092,-0.5892075896263123,0.010255001485347748,0.06363145262002945,-0.48577412962913513,-9.310927391052246,0.5169603824615479,0.14802218973636627,0.609230101108551
1781536315277141,1758583553,0.026647275313735008,-0.8074826598167419,-0.5892000794410706,0.010243933647871017,0.0732511579990387,-0.4849230945110321,-9.304458618164062,0.37884384393692017,0.2018088549375534,0.5903918743133545
1781536315277572,1758600220,0.02665545418858528,-0.8074899911880493,-0.5891895890235901,0.010249999351799488,0.0796537920832634,-0.4909067451953888,-9.30224323272705,0.5590676069259644,0.19094908237457275,0.6543980240821838
1781536315307424,1758616887,0.0266585536301136,-0.8074910640716553,-0.5891879796981812,0.010249797254800797,0.07117367535829544,-0.4871259331703186,-9.293292999267578,0.5057419538497925,0.20416522026062012,0.5998045802116394
1781536315307842,1758633554,0.026657307520508766,-0.8074972629547119,-0.5891794562339783,0.010256915353238583,0.07978873699903488,-0.46699681878089905,-9.306190490722656,0.510608434677124,0.14823992550373077,0.6728776693344116
1781536315337258,1758650221,0.02665833756327629,-0.8074916005134583,-0.5891871452331543,0.010260894894599915,0.06725415587425232,-0.4726172387599945,-9.305530548095703,0.5117993354797363,0.17011311650276184,0.5182281136512756
1781536315366156,1758666888,0.026658285409212112,-0.807488739490509,-0.589191198348999,0.01026153564453125,0.07512181252241135,-0.4727424085140228,-9.294022560119629,0.4920903742313385,0.18469959497451782,0.5426883101463318
1781536315366855,1758683555,0.026654010638594627,-0.8074893355369568,-0.5891903042793274,0.010276028886437416,0.07631269097328186,-0.49736103415489197,-9.293289184570312,0.5240678191184998,0.09355677664279938,0.6180280447006226
1781536315396960,1758700222,0.0266544371843338,-0.8074842095375061,-0.5891973376274109,0.010272753424942493,0.07701005041599274,-0.48405396938323975,-9.312225341796875,0.47837480902671814,0.21015861630439758,0.562256395816803
1781536315397265,1758716889,0.02664959989488125,-0.8074840903282166,-0.58919757604599,0.010272404178977013,0.07150626182556152,-0.4792153537273407,-9.280440330505371,0.46106061339378357,0.172110915184021,0.584168016910553
1781536315427420,1758733556,0.026644233614206314,-0.8074821829795837,-0.5892003774642944,0.010274221189320087,0.07853351533412933,-0.4805707335472107,-9.295753479003906,0.46714353561401367,0.15708906948566437,0.5617312788963318
1781536315427879,1758750223,0.026647932827472687,-0.8074857592582703,-0.5891954302787781,0.010269599966704845,0.07473278045654297,-0.4919552505016327,-9.294836044311523,0.4904767572879791,0.23288984596729279,0.6508762836456299
1781536315457418,1758766890,0.026641283184289932,-0.8074872493743896,-0.5891937017440796,0.010266897268593311,0.07395954430103302,-0.47402268648147583,-9.306900978088379,0.44135168194770813,0.1779378354549408,0.5968464016914368
1781536315457769,1758783557,0.02664197050035,-0.807486891746521,-0.589194118976593,0.010268354788422585,0.06966451555490494,-0.4805278182029724,-9.313112258911133,0.49914664030075073,0.1839568018913269,0.5776751637458801
1781536315486930,1758800224,0.026641882956027985,-0.8074870705604553,-0.5891937613487244,0.010271292179822922,0.056882765144109726,-0.4697134494781494,-9.327972412109375,0.500657856464386,0.1730457991361618,0.5890088677406311
1781536315517455,1758816891,0.026640091091394424,-0.8074818849563599,-0.5892010927200317,0.010273176245391369,0.07135248929262161,-0.4822300970554352,-9.300670623779297,0.48733916878700256,0.1703948676586151,0.528729259967804
1781536315518067,1758833558,0.026633163914084435,-0.8074824810028076,-0.5892005562782288,0.010274852626025677,0.08304310590028763,-0.4827701151371002,-9.31462574005127,0.4575260877609253,0.15240195393562317,0.5937216281890869
1781536315547135,1758850225,0.026620756834745407,-0.8074856996536255,-0.5891967415809631,0.010278088971972466,0.07159924507141113,-0.47908660769462585,-9.325422286987305,0.4329378306865692,0.12321629375219345,0.6399012804031372
1781536315548219,1758866892,0.026620011776685715,-0.8074917793273926,-0.5891884565353394,0.010272885672748089,0.07528232783079147,-0.4869078993797302,-9.313835144042969,0.4634169638156891,0.21766313910484314,0.6617873311042786
1781536315577208,1758883559,0.026612520217895508,-0.8074899911880493,-0.5891910195350647,0.010284663178026676,0.07824347913265228,-0.4773235619068146,-9.299745559692383,0.49539443850517273,0.09346713870763779,0.5737564563751221
1781536315577766,1758900226,0.02662801928818226,-0.8074939846992493,-0.5891848802566528,0.010288798250257969,0.06937047094106674,-0.4817885458469391,-9.312447547912598,0.5916597247123718,0.23080244660377502,0.6399012804031372
1781536315606935,1758916893,0.026625780388712883,-0.8074965476989746,-0.589181125164032,0.01029809471219778,0.07914504408836365,-0.47539955377578735,-9.30150032043457,0.5142582058906555,0.12933771312236786,0.615044116973877
1781536315607288,1758933560,0.026620307937264442,-0.8074931502342224,-0.5891859531402588,0.010304318740963936,0.0689210519194603,-0.48615676164627075,-9.306292533874512,0.48335644602775574,0.13512620329856873,0.6113942861557007
1781536315636546,1758950227,0.02662394382059574,-0.8074990510940552,-0.5891777873039246,0.010295323096215725,0.07239056378602982,-0.4876970052719116,-9.313692092895508,0.4726247191429138,0.2553778290748596,0.646611750125885
1781536315666870,1758966894,0.02663133665919304,-0.8074995279312134,-0.5891769528388977,0.010285666212439537,0.06645308434963226,-0.47375449538230896,-9.303399085998535,0.49112987518310547,0.2727816700935364,0.5869598388671875
1781536315667291,1758983561,0.02662208490073681,-0.8074970245361328,-0.5891809463500977,0.010278888046741486,0.06323092430830002,-0.47408348321914673,-9.310076713562012,0.41044989228248596,0.1884518414735794,0.5543292760848999
1781536315696797,1759000228,0.026617003604769707,-0.8075017929077148,-0.5891745686531067,0.010282100178301334,0.07298323512077332,-0.4740799069404602,-9.315862655639648,0.47459688782691956,0.14840637147426605,0.5713744759559631
1781536315697364,1759016895,0.026611994951963425,-0.8074969053268433,-0.5891816020011902,0.01027704868465662,0.05860330909490585,-0.4930195212364197,-9.299180030822754,0.4408649802207947,0.19687838852405548,0.5563269853591919
1781536315726900,1759033562,0.026596983894705772,-0.8074914813041687,-0.5891895294189453,0.010282264091074467,0.0788121297955513,-0.47237056493759155,-9.303943634033203,0.4262017011642456,0.10145829617977142,0.5931965112686157
1781536315727450,1759050229,0.026596853509545326,-0.8074944019317627,-0.5891855955123901,0.0102914460003376,0.08012492209672928,-0.49127790331840515,-9.319231033325195,0.5254124402999878,0.13844303786754608,0.6198336482048035
1781536315759196,1759066896,0.026593266054987907,-0.8074935674667358,-0.5891869068145752,0.010289845988154411,0.06512630730867386,-0.4940244257450104,-9.285099983215332,0.46255892515182495,0.18368786573410034,0.5873439908027649
1781536315759986,1759083563,0.026594672352075577,-0.8074942827224731,-0.589185893535614,0.010287299752235413,0.07305118441581726,-0.48704010248184204,-9.307455062866211,0.48642995953559875,0.20926213264465332,0.5975505709648132
1781536315788258,1759100230,0.026604099199175835,-0.807494580745697,-0.5891850590705872,0.010290076024830341,0.07748925685882568,-0.4901907444000244,-9.291919708251953,0.5527924299240112,0.21111907064914703,0.5782002806663513
1781536315788770,1759116897,0.026601020246744156,-0.8075011968612671,-0.5891758799552917,0.010297847911715508,0.07128598541021347,-0.4697514474391937,-9.297725677490234,0.5027837157249451,0.13563846051692963,0.670124351978302
1781536315819101,1759133564,0.02659844420850277,-0.8075031638145447,-0.5891731977462769,0.010300909169018269,0.062451306730508804,-0.49547278881073,-9.313481330871582,0.48646843433380127,0.16387644410133362,0.6433078050613403
1781536315848836,1759150231,0.026595981791615486,-0.8075085282325745,-0.589165985584259,0.010298597626388073,0.07295820862054825,-0.49748262763023376,-9.31843376159668,0.4655812382698059,0.19307492673397064,0.6423729062080383
1781536315849461,1759166898,0.026591196656227112,-0.8075045943260193,-0.589171826839447,0.01029637549072504,0.07428497821092606,-0.4797947108745575,-9.287882804870605,0.4531974494457245,0.18203586339950562,0.5668283104896545
1781536315877064,1759183565,0.026588842272758484,-0.8075088858604431,-0.5891659259796143,0.010305396281182766,0.06515089422464371,-0.4938599765300751,-9.298428535461426,0.5118889808654785,0.1312202662229538,0.649685263633728
1781536315877468,1759200232,0.026589777320623398,-0.8075026273727417,-0.5891743898391724,0.010313410311937332,0.06552684307098389,-0.4895470142364502,-9.284960746765137,0.5262961387634277,0.1492644101381302,0.5718482732772827
1781536315909856,1759216899,0.026579158380627632,-0.8075064420700073,-0.5891695022583008,0.010310021229088306,0.07022956013679504,-0.4772055149078369,-9.305630683898926,0.41530346870422363,0.1677311658859253,0.6665384769439697
1781536315910374,1759233566,0.02657962404191494,-0.8075045347213745,-0.5891722440719604,0.010304413735866547,0.07264707237482071,-0.4837106466293335,-9.291193962097168,0.46889808773994446,0.22110801935195923,0.5634217262268066
1781536315938207,1759250233,0.026566261425614357,-0.8075039386749268,-0.5891736745834351,0.010299411602318287,0.06877374649047852,-0.47546398639678955,-9.328022003173828,0.3944803476333618,0.16176339983940125,0.5727447867393494
1781536315938884,1759266900,0.026561478152871132,-0.8075032234191895,-0.5891748666763306,0.010302640497684479,0.050320811569690704,-0.48708659410476685,-9.305423736572266,0.4746480882167816,0.15414361655712128,0.6318332552909851
1781536315969725,1759283567,0.02655705064535141,-0.8075050711631775,-0.5891726016998291,0.01030726172029972,0.05648261681199074,-0.49558722972869873,-9.321577072143555,0.4827929437160492,0.14556336402893066,0.6066303849220276
1781536316000061,1759300234,0.02655107155442238,-0.8075034022331238,-0.5891749858856201,0.010312233120203018,0.07454926520586014,-0.48048853874206543,-9.286666870117188,0.47592875361442566,0.1362147331237793,0.5687363743782043
1781536316000496,1759316901,0.0265379399061203,-0.8075094223022461,-0.589167058467865,0.01032190304249525,0.0692925900220871,-0.47433382272720337,-9.304304122924805,0.45500320196151733,0.08169810473918915,0.6241622567176819
1781536316027300,1759333568,0.026543794199824333,-0.8075118064880371,-0.5891634821891785,0.010327267460525036,0.07966002076864243,-0.48435795307159424,-9.311192512512207,0.5429700613021851,0.18280424177646637,0.6080390810966492
1781536316028360,1759350235,0.02653738111257553,-0.8075065612792969,-0.5891709327697754,0.010329978540539742,0.06813067197799683,-0.4787754714488983,-9.305630683898926,0.4638267457485199,0.14820146560668945,0.5702219009399414
1781536316057069,1759366902,0.026531388983130455,-0.8075073957443237,-0.5891700387001038,0.010331523604691029,0.07004038244485855,-0.4782891273498535,-9.31583023071289,0.4618033468723297,0.15543705224990845,0.5900589227676392
1781536316057612,1759383569,0.026537083089351654,-0.8075132369995117,-0.5891616344451904,0.010339313186705112,0.0579240545630455,-0.48594406247138977,-9.323843002319336,0.5513709783554077,0.17040768265724182,0.6623507738113403
1781536316086364,1759400236,0.026532024145126343,-0.8075082898139954,-0.5891684293746948,0.010354475118219852,0.08076149225234985,-0.4870615601539612,-9.312897682189941,0.5222237706184387,0.08327329158782959,0.5515887141227722
1781536316087439,1759416903,0.0265377014875412,-0.8075056076049805,-0.5891715884208679,0.010373592376708984,0.06917285919189453,-0.48343634605407715,-9.305936813354492,0.5974354147911072,0.10636314749717712,0.596398115158081
1781536316116938,1759433570,0.026551075279712677,-0.807508647441864,-0.5891662240028381,0.010390562005341053,0.07344930619001389,-0.4737359285354614,-9.286831855773926,0.6316795945167542,0.14893142879009247,0.6210247278213501
1781536316147216,1759450237,0.0265496913343668,-0.8075124025344849,-0.5891610980033875,0.010395355522632599,0.0662456601858139,-0.4674639403820038,-9.30422592163086,0.500158429145813,0.15715312957763672,0.6296305656433105
1781536316147774,1759466904,0.026540912687778473,-0.8075149655342102,-0.5891580581665039,0.010397220961749554,0.05489478260278702,-0.4752851128578186,-9.286066055297852,0.44756269454956055,0.14202880859375,0.596257209777832
1781536316177295,1759483571,0.026539882645010948,-0.8075206279754639,-0.5891502499580383,0.0103995930403471,0.07673110067844391,-0.4648032486438751,-9.313434600830078,0.4922184944152832,0.17255917191505432,0.650505006313324
1781536316177823,1759500238,0.02653653733432293,-0.8075264096260071,-0.5891426205635071,0.010395724326372147,0.0749930664896965,-0.48174014687538147,-9.312361717224121,0.4541195333003998,0.19735224545001984,0.6405414938926697
1781536316207251,1759516905,0.0265330970287323,-0.8075239062309265,-0.5891460180282593,0.010403196327388287,0.06109950318932533,-0.4905698001384735,-9.280704498291016,0.5000303387641907,0.13212950527668,0.5636650919914246
1781536316207879,1759533572,0.02653062902390957,-0.8075281977653503,-0.5891404151916504,0.010401862673461437,0.07756435871124268,-0.49790817499160767,-9.308145523071289,0.469167023897171,0.18726085126399994,0.6426674723625183
1781536316237233,1759550239,0.026524538174271584,-0.8075284361839294,-0.5891405344009399,0.010392537340521812,0.07334085553884506,-0.4882095158100128,-9.294416427612305,0.4172116219997406,0.21442310512065887,0.5714513063430786
1781536316237823,1759566906,0.026515623554587364,-0.8075273633003235,-0.5891424417495728,0.010384363122284412,0.07485359162092209,-0.48128241300582886,-9.323705673217773,0.4060060679912567,0.1972113698720932,0.5771245360374451
1781536316267063,1759583573,0.026506442576646805,-0.8075201511383057,-0.5891526937484741,0.010384821332991123,0.06177511811256409,-0.48311346769332886,-9.297030448913574,0.44001975655555725,0.14602439105510712,0.5022842288017273
1781536316297013,1759600240,0.02649907022714615,-0.8075119853019714,-0.5891643762588501,0.010379788465797901,0.07781112194061279,-0.47987696528434753,-9.296010971069336,0.427815318107605,0.1839696168899536,0.4994540214538574
1781536316297520,1759616907,0.026498155668377876,-0.8075226545333862,-0.5891496539115906,0.010385113768279552,0.06202707812190056,-0.48584920167922974,-9.306905746459961,0.5042691826820374,0.15785746276378632,0.7092348337173462
1781536316327704,1759633574,0.026487279683351517,-0.8075203895568848,-0.5891532301902771,0.010386688634753227,0.059214841574430466,-0.4778170585632324,-9.312089920043945,0.43470513820648193,0.13447308540344238,0.5621411800384521
1781536316328075,1759650241,0.026478957384824753,-0.8075173497200012,-0.5891578197479248,0.010387178510427475,0.07716739922761917,-0.4851733148097992,-9.311653137207031,0.44410502910614014,0.1521458476781845,0.5781106352806091
1781536316357844,1759666908,0.026483068242669106,-0.8075180649757385,-0.5891566872596741,0.010383933782577515,0.0754043310880661,-0.4946681559085846,-9.305913925170898,0.4980069100856781,0.22329790890216827,0.6054137945175171
1781536316358264,1759683575,0.02647898718714714,-0.8075230717658997,-0.5891498923301697,0.010383585467934608,0.0821562111377716,-0.48489436507225037,-9.310093879699707,0.4643133878707886,0.1738526076078415,0.629144012928009
1781536316387156,1759700242,0.026481108739972115,-0.8075269460678101,-0.5891445875167847,0.010378050617873669,0.0677337646484375,-0.4828522205352783,-9.325322151184082,0.4775935709476471,0.2282155156135559,0.6290029883384705
1781536316417259,1759716909,0.026473041623830795,-0.807525634765625,-0.5891467332839966,0.010380744934082031,0.06391040235757828,-0.48094624280929565,-9.30913257598877,0.4543628692626953,0.14074817299842834,0.5925049185752869
1781536316417892,1759733576,0.026466473937034607,-0.8075249791145325,-0.5891480445861816,0.010373840108513832,0.07608023285865784,-0.47115814685821533,-9.299734115600586,0.4237300753593445,0.20031052827835083,0.5998302698135376
1781536316447266,1759750243,0.026468545198440552,-0.8075272440910339,-0.5891447067260742,0.010382236912846565,0.07017189264297485,-0.4873369634151459,-9.315322875976562,0.5338262319564819,0.15032732486724854,0.6180792450904846
1781536316447831,1759766910,0.026458723470568657,-0.8075259327888489,-0.5891466736793518,0.01039593480527401,0.06765826791524887,-0.483481764793396,-9.311084747314453,0.489413857460022,0.07177318632602692,0.5814274549484253
1781536316477086,1759783577,0.026452435180544853,-0.807524561882019,-0.589148759841919,0.010401572100818157,0.0650869756937027,-0.47279247641563416,-9.300931930541992,0.4760184586048126,0.13200144469738007,0.6009443998336792
1781536316477626,1759800244,0.026446251198649406,-0.8075224757194519,-0.589151918888092,0.010398322716355324,0.0697646513581276,-0.47402268648147583,-9.282089233398438,0.44094187021255493,0.18055032193660736,0.5744736194610596
1781536316507261,1759816911,0.02643030509352684,-0.8075267672538757,-0.5891464948654175,0.010415319353342056,0.07124877721071243,-0.4908415973186493,-9.31214714050293,0.46828338503837585,0.03010132722556591,0.6422961354255676
1781536316507925,1759833578,0.02643478289246559,-0.8075252771377563,-0.5891482830047607,0.010416315868496895,0.07073737680912018,-0.4869614243507385,-9.304862022399902,0.5174084901809692,0.1996573805809021,0.5687363743782043
1781536316537127,1759850245,0.02643316239118576,-0.8075237274169922,-0.5891507863998413,0.010400231927633286,0.05697285756468773,-0.49247586727142334,-9.323708534240723,0.41471439599990845,0.26814574003219604,0.5365284085273743
1781536316567914,1759866912,0.026440342888236046,-0.8075279593467712,-0.5891445875167847,0.010401744395494461,0.06741908937692642,-0.46920233964920044,-9.284305572509766,0.5339799523353577,0.20982563495635986,0.6426418423652649
1781536316568478,1759883579,0.026436377316713333,-0.8075295686721802,-0.5891424417495728,0.010402324609458447,0.05769495293498039,-0.4854057729244232,-9.289080619812012,0.46860355138778687,0.16848674416542053,0.6036977171897888
1781536316596227,1759900246,0.02644297480583191,-0.8075381517410278,-0.5891306400299072,0.010399666614830494,0.08356229960918427,-0.4882269501686096,-9.290725708007812,0.5137330889701843,0.2307768017053604,0.6721348762512207
1781536316597303,1759916913,0.026432080194354057,-0.8075388073921204,-0.5891303420066833,0.010392562486231327,0.06430736184120178,-0.4767656624317169,-9.312043190002441,0.3987961411476135,0.183354914188385,0.6029677391052246
1781536316629655,1759933580,0.026429226621985435,-0.8075346350669861,-0.5891361832618713,0.010397656820714474,0.0862545445561409,-0.49704989790916443,-9.323912620544434,0.49287158250808716,0.1483679711818695,0.5794296860694885
1781536316630143,1759950247,0.0264301560819149,-0.8075299859046936,-0.5891423225402832,0.010396471247076988,0.0837547779083252,-0.4785573184490204,-9.312007904052734,0.4889144003391266,0.19663511216640472,0.5423552989959717
1781536316658364,1759966914,0.026437614113092422,-0.807526171207428,-0.5891470909118652,0.010405493900179863,0.07675613462924957,-0.4872010350227356,-9.306989669799805,0.5665336847305298,0.16647614538669586,0.5506153702735901
1781536316658730,1759983581,0.02642003260552883,-0.8075338006019592,-0.5891374349594116,0.010401420295238495,0.06946457177400589,-0.48307397961616516,-9.332366943359375,0.3737853467464447,0.14004382491111755,0.6564471125602722
1781536316691474,1760000248,0.026408208534121513,-0.8075321316719055,-0.5891401767730713,0.010402294807136059,0.06040182337164879,-0.4857384264469147,-9.299591064453125,0.4262145161628723,0.13414010405540466,0.5723733901977539
1781536316719661,1760016915,0.02640746720135212,-0.8075311779975891,-0.589141845703125,0.010391906835138798,0.06930331885814667,-0.4929587244987488,-9.318276405334473,0.4421456456184387,0.24114997684955597,0.5669307112693787
1781536316721113,1760033582,0.026401353999972343,-0.807532548904419,-0.5891400575637817,0.010403034277260303,0.0682876780629158,-0.48160067200660706,-9.324173927307129,0.49899303913116455,0.10181689262390137,0.6205381155014038
1781536316749672,1760050249,0.02639569155871868,-0.8075330853462219,-0.5891392827033997,0.01041936594992876,0.07398100197315216,-0.4682864546775818,-9.30266284942627,0.5227872133255005,0.07401429861783981,0.6046966910362244
1781536316750184,1760066916,0.026395156979560852,-0.8075413703918457,-0.5891281962394714,0.010407612659037113,0.07099613547325134,-0.4944057762622833,-9.316629409790039,0.437010258436203,0.2525220215320587,0.6760664582252502
1781536316777009,1760083583,0.026387227699160576,-0.8075441718101501,-0.5891245603561401,0.010411393828690052,0.06862384080886841,-0.4860244393348694,-9.308313369750977,0.45926767587661743,0.13465234637260437,0.6148776412010193
1781536316808107,1760100250,0.026383521035313606,-0.8075406551361084,-0.589129626750946,0.010405766777694225,0.07754647731781006,-0.4903874099254608,-9.303596496582031,0.4445916712284088,0.20366577804088593,0.5751011967658997
1781536316839516,1760116917,0.026375509798526764,-0.8075429201126099,-0.5891267657279968,0.010408979840576649,0.0820024311542511,-0.47244203090667725,-9.31766128540039,0.45642468333244324,0.1376362442970276,0.6187835335731506
1781536316840183,1760133584,0.026376638561487198,-0.8075445890426636,-0.5891244411468506,0.010416561737656593,0.07526843249797821,-0.4849623143672943,-9.318552017211914,0.5248746275901794,0.1505962610244751,0.6197696328163147
1781536316840429,1760150251,0.026372745633125305,-0.8075407147407532,-0.5891298055648804,0.010418522171676159,0.07358404248952866,-0.4833744764328003,-9.29743766784668,0.47449442744255066,0.1600857675075531,0.5612190365791321
1781536316869727,1760166918,0.02637622319161892,-0.8075395822525024,-0.589131236076355,0.010420654900372028,0.07644858211278915,-0.4746556878089905,-9.305659294128418,0.5157821178436279,0.1904880404472351,0.6063870191574097
1781536316870310,1760183585,0.026370037347078323,-0.8075348734855652,-0.5891377925872803,0.010424060747027397,0.06739719957113266,-0.4825197756290436,-9.315290451049805,0.4679375886917114,0.14140130579471588,0.5332244038581848
1781536316900874,1760200252,0.026362426578998566,-0.8075336217880249,-0.5891402363777161,0.010417272336781025,0.0708121806383133,-0.4895399808883667,-9.305152893066406,0.41868436336517334,0.19206322729587555,0.5481182336807251
1781536316901433,1760216919,0.026356792077422142,-0.8075366616249084,-0.5891362428665161,0.01042405515909195,0.06269806623458862,-0.46913403272628784,-9.301332473754883,0.48453468084335327,0.12515006959438324,0.5865628123283386
1781536316929585,1760233586,0.02635519579052925,-0.807537853717804,-0.5891346335411072,0.010423606261610985,0.07933457940816879,-0.4803919196128845,-9.30051326751709,0.47765758633613586,0.18184375762939453,0.577572762966156
1781536316930260,1760250253,0.026346329599618912,-0.8075436949729919,-0.5891268253326416,0.01042780838906765,0.06929974257946014,-0.4808961749076843,-9.29631519317627,0.45546427369117737,0.12885108590126038,0.6494036316871643
1781536316989770,1760266920,0.02633230946958065,-0.8075435161590576,-0.5891275405883789,0.010433007031679153,0.07626262307167053,-0.4762149155139923,-9.295088768005371,0.4312985837459564,0.10063868761062622,0.5817475914955139
1781536316990269,1760283587,0.02632628008723259,-0.8075419068336487,-0.5891303420066833,0.010421346873044968,0.07188499718904495,-0.4644993841648102,-9.304919242858887,0.40656960010528564,0.22956021130084991,0.6228815913200378
1781536316990403,1760300254,0.026322878897190094,-0.8075388073921204,-0.5891345143318176,0.01043124683201313,0.06377770751714706,-0.47493112087249756,-9.303367614746094,0.5093660950660706,0.11768394708633423,0.5692742466926575
1781536317026857,1760316921,0.02632911130785942,-0.8075397610664368,-0.5891329646110535,0.010425874032080173,0.06240878999233246,-0.48935016989707947,-9.292556762695312,0.5009652376174927,0.24171346426010132,0.5938624143600464
1781536317056165,1760333588,0.026320233941078186,-0.807540237903595,-0.5891324877738953,0.010431679897010326,0.06340257823467255,-0.48874595761299133,-9.314425468444824,0.4622899293899536,0.11799129098653793,0.5849363207817078
1781536317056929,1760350255,0.026318974792957306,-0.8075383901596069,-0.5891351699829102,0.01043128315359354,0.07111287862062454,-0.4811071753501892,-9.300212860107422,0.47943776845932007,0.18336772918701172,0.5727192163467407
1781536317057401,1760366922,0.026323236525058746,-0.8075383305549622,-0.5891350507736206,0.010431429371237755,0.08041857182979584,-0.49386703968048096,-9.316238403320312,0.5124012231826782,0.20253880321979523,0.5806847214698792
1781536317094493,1760383589,0.026320772245526314,-0.8075484037399292,-0.5891212224960327,0.010437645949423313,0.0824291780591011,-0.47759902477264404,-9.318700790405273,0.49928751587867737,0.1425410807132721,0.6605451107025146
1781536317094998,1760400256,0.02630787156522274,-0.8073485493659973,-0.5893957018852234,0.010441632010042667,0.07677759230136871,-0.4779350757598877,-9.300896644592285,0.48436814546585083,0.17718225717544556,0.5967182517051697
1781536317115761,1760416923,0.026309246197342873,-0.8073523640632629,-0.5893901586532593,0.010443504899740219,0.08214147388935089,-0.48598161339759827,-9.322181701660156,0.5029117465019226,0.18257372081279755,0.6295024752616882
1781536317116306,1760433590,0.02631165087223053,-0.8073470592498779,-0.5893975496292114,0.010446099564433098,0.0779394879937172,-0.48107150197029114,-9.310405731201172,0.5116584897041321,0.18207426369190216,0.5644078254699707
1781536317145772,1760450257,0.026299702003598213,-0.8073490858078003,-0.5893953442573547,0.010444152168929577,0.06822330504655838,-0.4818402826786041,-9.299022674560547,0.41351062059402466,0.14913633465766907,0.6081671118736267
1781536317146223,1760466924,0.026301218196749687,-0.8073492646217346,-0.5893950462341309,0.010444424115121365,0.0669322982430458,-0.4863355755805969,-9.322918891906738,0.497110515832901,0.1922297179698944,0.6140708327293396
1781536317176903,1760483591,0.026295309886336327,-0.8073498606681824,-0.5893945097923279,0.010443180799484253,0.06866279989480972,-0.4783106744289398,-9.312143325805664,0.44949644804000854,0.17106081545352936,0.6243799328804016
1781536317177484,1760500258,0.026296688243746758,-0.8073457479476929,-0.589400053024292,0.010438835248351097,0.07331582903862,-0.48885682225227356,-9.31760025024414,0.478016197681427,0.2153835892677307,0.5545213222503662
1781536317205838,1760516925,0.026303522288799286,-0.8073427081108093,-0.5894040465354919,0.010430440306663513,0.07112360745668411,-0.48096054792404175,-9.305115699768066,0.4924105405807495,0.25825926661491394,0.5278969407081604
1781536317206164,1760533592,0.026310494169592857,-0.8073456287384033,-0.5893996357917786,0.010433257557451725,0.06635352969169617,-0.4936879873275757,-9.31592845916748,0.5379371047019958,0.1991451382637024,0.6127262115478516
1781536317235639,1760550259,0.026307618245482445,-0.8073459267616272,-0.5893992781639099,0.010432957671582699,0.08006412535905838,-0.46536827087402344,-9.300009727478027,0.47014033794403076,0.1779634654521942,0.6247513890266418
1781536317265917,1760566926,0.026300974190235138,-0.8073383569717407,-0.5894104242324829,0.010419361293315887,0.08130864799022675,-0.4800235629081726,-9.317550659179688,0.39510786533355713,0.2368854284286499,0.582234263420105
1781536317266437,1760583593,0.02629518136382103,-0.8073368072509766,-0.5894128680229187,0.010418339632451534,0.06761927902698517,-0.48202624917030334,-9.313119888305664,0.4513789117336273,0.16878128051757812,0.5882276296615601
1781536317298049,1760600260,0.02629215084016323,-0.8073399662971497,-0.5894086956977844,0.010420158505439758,0.07000067830085754,-0.48552021384239197,-9.300588607788086,0.47879743576049805,0.16207076609134674,0.5786485075950623
1781536317298376,1760616927,0.026295170187950134,-0.8073434233665466,-0.5894035696983337,0.010420400649309158,0.06436458230018616,-0.4867933392524719,-9.319974899291992,0.5059341192245483,0.19561059772968292,0.587177574634552
1781536317326301,1760633594,0.026289938017725945,-0.8073373436927795,-0.5894120335578918,0.010420877486467361,0.06899546086788177,-0.4850875735282898,-9.314815521240234,0.4612525999546051,0.15984244644641876,0.510326623916626
1781536317326828,1760650261,0.02627766877412796,-0.8073384165763855,-0.5894112586975098,0.01042338740080595,0.07765410095453262,-0.4886959195137024,-9.291586875915527,0.42963382601737976,0.12262719124555588,0.5994203686714172
1781536317355609,1760666928,0.026277992874383926,-0.8073410391807556,-0.589407742023468,0.01041826605796814,0.05570300295948982,-0.48916077613830566,-9.290092468261719,0.4685139060020447,0.21666422486305237,0.619539201259613
1781536317355996,1760683595,0.026285488158464432,-0.8073362112045288,-0.5894139409065247,0.010423798114061356,0.06203646957874298,-0.47910091280937195,-9.325310707092285,0.5519856810569763,0.1846611648797989,0.5449549555778503
1781536317386321,1760700262,0.026282409206032753,-0.807328999042511,-0.5894238948822021,0.010422873310744762,0.0717172622680664,-0.4774487018585205,-9.314496994018555,0.467207670211792,0.17706698179244995,0.5192270278930664
1781536317416752,1760716929,0.02628556825220585,-0.8073209524154663,-0.5894348621368408,0.01042264886200428,0.06285867094993591,-0.48838841915130615,-9.316571235656738,0.5049735307693481,0.1972113698720932,0.49276912212371826
1781536317417044,1760733596,0.026288680732250214,-0.8073223233222961,-0.5894327759742737,0.010428935289382935,0.0764700397849083,-0.48266997933387756,-9.293396949768066,0.5303941369056702,0.16394048929214478,0.6041715145111084
1781536317446055,1760750263,0.026292646303772926,-0.8073229789733887,-0.5894317030906677,0.01043202169239521,0.06550538539886475,-0.49338069558143616,-9.320837020874023,0.5220316052436829,0.1854807585477829,0.6070529818534851
1781536317447008,1760766930,0.026287956163287163,-0.8073220252990723,-0.5894330143928528,0.01042926125228405,0.06375986337661743,-0.4891144037246704,-9.296773910522461,0.45040568709373474,0.18194620311260223,0.5800700187683105
1781536317476318,1760783597,0.026299145072698593,-0.8073247671127319,-0.589428722858429,0.010430780239403248,0.07542131841182709,-0.4832143485546112,-9.313007354736328,0.5554305911064148,0.22462977468967438,0.6400677561759949
1781536317476908,1760800264,0.02629326470196247,-0.8073164224624634,-0.5894405841827393,0.010421856306493282,0.05954742804169655,-0.47683003544807434,-9.300810813903809,0.4192478358745575,0.20942865312099457,0.5022329688072205
1781536317507092,1760816931,0.02626856602728367,-0.8073210120201111,-0.5894355177879333,0.010422036051750183,0.058109793812036514,-0.48911070823669434,-9.30915355682373,0.350631445646286,0.08611629158258438,0.6458945870399475
1781536317507570,1760833598,0.02626425214111805,-0.8073190450668335,-0.5894383192062378,0.010429716669023037,0.07010439038276672,-0.47631147503852844,-9.31418228149414,0.4945363700389862,0.12631544470787048,0.5923768877983093
1781536317539588,1760850265,0.026256822049617767,-0.8073192238807678,-0.5894384980201721,0.0104210851714015,0.06565558910369873,-0.46280771493911743,-9.315351486206055,0.4114871919155121,0.20276932418346405,0.5753188729286194
1781536317566392,1760866932,0.026242736726999283,-0.8073192834854126,-0.5894388556480408,0.010430369526147842,0.08155182749032974,-0.48356401920318604,-9.323458671569824,0.4469864070415497,0.07672924548387527,0.5863963961601257
1781536317566894,1760883599,0.026242688298225403,-0.8073203563690186,-0.5894370675086975,0.010438176803290844,0.07001140713691711,-0.4857812821865082,-9.313048362731934,0.5187020301818848,0.14311736822128296,0.6155052781105042
1781536317596184,1760900266,0.026236390694975853,-0.8073219060897827,-0.5894351601600647,0.010450872592628002,0.0646757110953331,-0.48774102330207825,-9.302799224853516,0.5039490461349487,0.08995820581912994,0.6081799268722534
1781536317596504,1760916933,0.026237377896904945,-0.8073250651359558,-0.5894308090209961,0.010451140813529491,0.06908159703016281,-0.4924294352531433,-9.318498611450195,0.4937168061733246,0.18969406187534332,0.6336005926132202
1781536317628270,1760933600,0.026226161047816277,-0.807320237159729,-0.58943772315979,0.010457576252520084,0.06083162501454353,-0.4879520535469055,-9.286283493041992,0.45111003518104553,0.10501846671104431,0.5730393528938293
1781536317628820,1760950267,0.02623225376009941,-0.807316243648529,-0.5894427299499512,0.010463932529091835,0.07456034421920776,-0.47364363074302673,-9.303742408752441,0.547144889831543,0.17482587695121765,0.5626405477523804
1781536317655258,1760966934,0.026232857257127762,-0.807308554649353,-0.5894531011581421,0.010465754196047783,0.07875848561525345,-0.4775417745113373,-9.315351486206055,0.49876245856285095,0.17582476139068604,0.5072530508041382
1781536317655653,1760983601,0.0262215007096529,-0.8073142766952515,-0.5894461274147034,0.01046475488692522,0.0783761590719223,-0.483864426612854,-9.304197311401367,0.4195680022239685,0.1479453593492508,0.6750290989875793
1781536317685433,1761000268,0.02622014842927456,-0.8073158860206604,-0.589444100856781,0.010454795323312283,0.06694302707910538,-0.490126371383667,-9.292177200317383,0.4397764503955841,0.23438821732997894,0.5813122391700745
1781536317717287,1761016935,0.02621845155954361,-0.8073133230209351,-0.5894477963447571,0.010454014874994755,0.06523717194795609,-0.48783043026924133,-9.295475006103516,0.4743279814720154,0.18503253161907196,0.6110485792160034
1781536317717779,1761033602,0.02621469832956791,-0.8073111176490784,-0.5894509553909302,0.010454037226736546,0.05900384485721588,-0.48597437143325806,-9.302026748657227,0.46631115674972534,0.17121447622776031,0.5972432494163513
1781536317748336,1761050269,0.026217130944132805,-0.8073051571846008,-0.5894590020179749,0.010453841648995876,0.06780488789081573,-0.4758036434650421,-9.298567771911621,0.5005809664726257,0.19450925290584564,0.5243239998817444
1781536317748786,1761066936,0.02622193470597267,-0.8073027729988098,-0.5894620418548584,0.010453443974256516,0.07122016698122025,-0.4933556914329529,-9.310330390930176,0.5129263401031494,0.20542025566101074,0.5484511256217957
