host_t_us,sensor_t_us,qw,qx,qy,qz,ax,ay,az,gx,gy,gz
1781536308984345,757955660,0.7630906701087952,0.6311414241790771,0.061409737914800644,-0.12482982128858566,-2.5265049934387207,9.28988265991211,1.639888882637024,7.197579860687256,-3.962247371673584,-1.04388427734375
1781536308984786,757972327,0.7626169323921204,0.6316729187965393,0.061097364872694016,-0.12518852949142456,-2.521289825439453,9.31445598602295,1.5888473987579346,5.908140182495117,-2.405775785446167,-0.5886824131011963
1781536309014290,757988994,0.7622036933898926,0.6321494579315186,0.060961026698350906,-0.12536735832691193,-2.5284464359283447,9.24073600769043,1.6497352123260498,5.1290459632873535,-0.7743871808052063,-0.38064315915107727
1781536309044953,758005661,0.7618139386177063,0.6325770020484924,0.0608498640358448,-0.12563368678092957,-2.5002851486206055,9.232053756713867,1.7448351383209229,4.783568859100342,-1.0754644870758057,-0.9485791325569153
1781536309045477,758022328,0.7613555788993835,0.633067786693573,0.06060192734003067,-0.12605859339237213,-2.5480434894561768,9.27558708190918,1.6908427476882935,5.597188472747803,-2.398104667663574,-1.2168081998825073
1781536309074669,758038995,0.760957658290863,0.6335051655769348,0.06027156859636307,-0.12642225623130798,-2.593935489654541,9.276525497436523,1.620046854019165,5.099514484405518,-2.63462495803833,-0.5068241357803345
1781536309075150,758055662,0.7607516646385193,0.6337452530860901,0.059967752546072006,-0.12660306692123413,-2.4898693561553955,9.38193130493164,1.4814695119857788,3.131056785583496,-1.9509577751159668,0.4202083647251129
1781536309105038,758072329,0.7606645822525024,0.6338727474212646,0.05961361154913902,-0.1266554743051529,-2.4182138442993164,9.290169715881348,1.435925841331482,2.0132031440734863,-1.8023145198822021,1.3680064678192139
1781536309105612,758088996,0.7608016133308411,0.6337425112724304,0.05919340252876282,-0.12668196856975555,-2.420814275741577,9.27426528930664,1.4198737144470215,-0.2666282057762146,-2.3516430854797363,1.8807216882705688
1781536309134849,758105663,0.7610231041908264,0.6334847211837769,0.05874810367822647,-0.1268472671508789,-2.434387683868408,9.095333099365234,1.5266048908233643,-1.2272710800170898,-3.2340645790100098,1.285584568977356
1781536309136550,758122330,0.7611096501350403,0.6333109736442566,0.05833589285612106,-0.12738491594791412,-2.48765230178833,9.175902366638184,1.6584187746047974,-0.078848697245121,-4.555321216583252,-0.8904383778572083
1781536309164631,758138997,0.7610334753990173,0.6333354115486145,0.05799909308552742,-0.12787216901779175,-2.531198501586914,9.351513862609863,1.6856833696365356,1.5792982578277588,-3.702392339706421,-1.0175925493240356
1781536309194518,758155664,0.7609222531318665,0.6334222555160522,0.057813629508018494,-0.12818652391433716,-2.5755739212036133,9.324135780334473,1.650720238685608,1.855159878730774,-2.089714527130127,-0.7775375843048096
1781536309195021,758172331,0.7607974410057068,0.6335660219192505,0.057779595255851746,-0.1282321810722351,-2.6121082305908203,9.355639457702637,1.6297438144683838,1.9706859588623047,-0.07184361666440964,-0.019862648099660873
1781536309225622,758188998,0.7608475089073181,0.6335378885269165,0.05773848295211792,-0.12809161841869354,-2.567444324493408,9.334810256958008,1.6372640132904053,0.24058008193969727,0.48098090291023254,1.0718274116516113
1781536309227925,758205665,0.7611172795295715,0.633254885673523,0.05754484236240387,-0.1279756724834442,-2.4500784873962402,9.247326850891113,1.689789056777954,-1.906660795211792,-0.7363651394844055,1.700318455696106
1781536309254869,758222332,0.7612082362174988,0.6331478357315063,0.05731133371591568,-0.12806950509548187,-2.4175496101379395,9.24194622039795,1.7511677742004395,-0.08941394090652466,-1.63302743434906,0.6883605718612671
1781536309255750,758238999,0.7611335515975952,0.6332359313964844,0.05709867924451828,-0.1281735897064209,-2.487976312637329,9.283869743347168,1.6704126596450806,1.6380282640457153,-1.3316938877105713,0.47482743859291077
1781536309284674,758255666,0.7611343264579773,0.6332492828369141,0.05678747594356537,-0.1282414197921753,-2.5154709815979004,9.270597457885742,1.5955966711044312,0.989066481590271,-1.7851284742355347,1.1312552690505981
1781536309285024,758272333,0.7612037658691406,0.6331754922866821,0.05656900256872177,-0.12828905880451202,-2.4949867725372314,9.255040168762207,1.6316922903060913,0.14289964735507965,-1.317030668258667,0.8601064085960388
1781536309314213,758289000,0.7613703608512878,0.6329824924468994,0.05643726885318756,-0.12831123173236847,-2.474897861480713,9.261672973632812,1.6515856981277466,-0.991698145866394,-0.895086944103241,0.6553072929382324
1781536309344790,758305667,0.7616624236106873,0.6326414942741394,0.05641208589076996,-0.12827174365520477,-2.440458297729492,9.315995216369629,1.6777263879776,-2.431260108947754,-0.2481742650270462,0.5680704712867737
1781536309345404,758322334,0.7618222832679749,0.6324648857116699,0.05640951544046402,-0.12819306552410126,-2.4043636322021484,9.2921781539917,1.7852703332901,-1.0315771102905273,0.2365012764930725,0.6222285628318787
1781536309374276,758339001,0.7618321180343628,0.6324290037155151,0.056489281356334686,-0.12827640771865845,-2.349053144454956,9.227734565734863,1.845934510231018,0.34728893637657166,0.14534565806388855,-0.6623955965042114
1781536309374953,758355668,0.7617045640945435,0.6325365304946899,0.056475117802619934,-0.12851068377494812,-2.3813178539276123,9.325087547302246,1.7837414741516113,1.837948203086853,-0.8230897188186646,-1.1107203960418701
1781536309407311,758372335,0.761664628982544,0.6325463056564331,0.05634807422757149,-0.1287546157836914,-2.43017840385437,9.314090728759766,1.7162939310073853,1.0475208759307861,-1.5768072605133057,-0.6311607956886292
1781536309408384,758389002,0.7618486881256104,0.6323036551475525,0.05606251209974289,-0.12898194789886475,-2.4940218925476074,9.33159065246582,1.6459218263626099,-1.1156891584396362,-2.6453051567077637,0.24542726576328278
1781536309437262,758405669,0.7622209787368774,0.6318536996841431,0.05577961355447769,-0.1291096806526184,-2.5033152103424072,9.311902046203613,1.6216975450515747,-3.0627286434173584,-2.455118417739868,0.8429268598556519
1781536309437671,758422336,0.7625870108604431,0.6314188838005066,0.05568994954228401,-0.12911471724510193,-2.4780547618865967,9.264142036437988,1.7301082611083984,-3.1755776405334473,-0.8938575983047485,0.647200882434845
1781536309467903,758439003,0.762744665145874,0.6312210559844971,0.05574261024594307,-0.1291271150112152,-2.460409641265869,9.257637023925781,1.8405449390411377,-1.1526355743408203,0.11034592241048813,-0.10329602658748627
1781536309497295,758455670,0.7626433372497559,0.6313146948814392,0.055702727288007736,-0.12928473949432373,-2.4784674644470215,9.28956413269043,1.8324427604675293,1.6367474794387817,-0.647053599357605,-0.5811521410942078
1781536309497708,758472337,0.7625165581703186,0.6314316391944885,0.05557890608906746,-0.12951479852199554,-2.5764200687408447,9.25961971282959,1.7638486623764038,1.971467137336731,-1.3719314336776733,-0.6102738380432129
1781536309528565,758489004,0.7624432444572449,0.6314684748649597,0.05575256422162056,-0.12969228625297546,-2.827787160873413,9.204753875732422,1.648120641708374,1.0333251953125,0.3237893283367157,-1.6079779863357544
1781536309529356,758505671,0.7623257040977478,0.6315271258354187,0.056726280599832535,-0.12967509031295776,-3.4974868297576904,9.16806411743164,1.621769905090332,0.5512045621871948,5.398100852966309,-4.089285373687744
1781536309554756,758522338,0.7619304656982422,0.6318236589431763,0.0592469796538353,-0.1294265240430832,-5.390180587768555,8.965744972229004,1.390550136566162,1.5313912630081177,14.82923698425293,-9.741057395935059
1781536309555443,758539005,0.7613182663917542,0.6325358748435974,0.06509941071271896,-0.1267109215259552,-7.895425796508789,8.81149959564209,1.379772663116455,0.6792728304862976,43.45306396484375,-11.294166564941406
1781536309583615,758555672,0.7601996064186096,0.6343033313751221,0.07473361492156982,-0.1190437376499176,-11.61066722869873,9.483983993530273,1.6839401721954346,2.889674425125122,85.9210433959961,-1.7541441917419434
1781536309586860,758572339,0.7590389847755432,0.6371428370475769,0.0866764560341835,-0.1019643247127533,-14.627460479736328,10.632064819335938,1.931436538696289,1.9438596963882446,139.92967224121094,37.95172119140625
1781536309614938,758589006,0.7546513676643372,0.6450474858283997,0.09439827501773834,-0.07419393211603165,-16.01725959777832,11.135947227478027,4.245090961456299,39.09526062011719,170.21119689941406,113.08399200439453
1781536309644616,758605673,0.7443375587463379,0.6612808704376221,0.08382369577884674,-0.040541697293519974,-15.662006378173828,10.577702522277832,6.714502334594727,114.13198852539062,109.46458435058594,227.26296997070312
1781536309645006,758622340,0.7259448170661926,0.6860188841819763,0.048698559403419495,-0.003390309866517782,-12.932717323303223,10.44742488861084,8.478963851928711,199.3275146484375,6.7565813064575195,359.69085693359375
1781536309674360,758639007,0.6987504363059998,0.714156985282898,-0.014056554064154625,0.03912346065044403,-8.020800590515137,10.414140701293945,9.87063980102539,256.91461181640625,-102.92023468017578,518.2110595703125
1781536309674738,758655674,0.6615424752235413,0.7384329438209534,-0.10126183927059174,0.08261287212371826,-2.1110193729400635,7.650732517242432,10.41438102722168,281.3731994628906,-215.77862548828125,646.6806640625
1781536309705409,758672341,0.6134081482887268,0.7519803643226624,-0.2097521871328354,0.11941800266504288,4.552620887756348,4.144493579864502,9.327728271484375,271.6075439453125,-348.5389404296875,738.7117309570312
1781536309706036,758689008,0.5508943796157837,0.7513018250465393,-0.3338946998119354,0.143443763256073,7.706264019012451,-2.7653064727783203,2.438089370727539,254.94268798828125,-490.46075439453125,798.7265625
1781536309734829,758705675,0.47185957431793213,0.7542949318885803,-0.42582371830940247,0.1645064651966095,13.958105087280273,-15.53366470336914,-12.432104110717773,379.3136901855469,-424.8128356933594,627.8036499023438
1781536309736460,758722342,0.4090123772621155,0.7749543190002441,-0.4417954683303833,0.19228072464466095,23.713043212890625,-21.16103744506836,-17.02174949645996,457.5843200683594,-115.19474792480469,184.0518035888672
1781536309764750,758739009,0.3899804353713989,0.8016047477722168,-0.41184377670288086,0.18902410566806793,24.63860321044922,-21.99189567565918,-18.07056999206543,206.93165588378906,-26.13300323486328,-224.45419311523438
1781536309798282,758755676,0.4018230736255646,0.8202542066574097,-0.36938658356666565,0.17110075056552887,12.195199012756348,-13.526390075683594,-15.130915641784668,-10.19333553314209,24.370832443237305,-350.4473876953125
1781536309798899,758772343,0.42500296235084534,0.8318623304367065,-0.32445693016052246,0.14868058264255524,3.5930819511413574,-5.317366600036621,-12.81088924407959,-102.25521087646484,42.9302978515625,-372.4302673339844
1781536309825655,758789010,0.4497684836387634,0.8366320133209229,-0.2875407040119171,0.12278538197278976,-0.5394722819328308,0.3788015842437744,-10.901975631713867,-147.33119201660156,10.177066802978516,-323.10906982421875
1781536309828467,758805677,0.47492340207099915,0.8351529836654663,-0.25982001423835754,0.0972694680094719,-3.4093830585479736,4.649935722351074,-9.442789077758789,-175.94935607910156,-10.00114917755127,-256.9601745605469
1781536309854686,758822344,0.4991207420825958,0.8291407227516174,-0.2387111634016037,0.08013549447059631,-4.84074592590332,8.031686782836914,-7.275792598724365,-174.7127227783203,17.909685134887695,-182.80455017089844
1781536309855028,758839011,0.5195220708847046,0.8217048048973083,-0.2233082503080368,0.07093820720911026,-4.961925029754639,10.757737159729004,-4.5649590492248535,-148.0657958984375,38.16826629638672,-118.53333282470703
1781536309884878,758855678,0.536250114440918,0.8139023780822754,-0.2140871286392212,0.0645434781908989,-4.184140205383301,12.116137504577637,-2.3356010913848877,-127.31185913085938,26.487369537353516,-71.17115783691406
1781536309885272,758872345,0.5491426587104797,0.8065503835678101,-0.21092025935649872,0.058583132922649384,-3.407078981399536,12.564637184143066,-0.6924685835838318,-106.20339965820312,0.7691575884819031,-34.58342742919922
1781536309914531,758889012,0.5576844811439514,0.8008354902267456,-0.21160288155078888,0.05362524092197418,-2.680788993835449,12.367087364196777,-0.18731950223445892,-75.95256042480469,-15.162389755249023,-10.011399269104004
1781536309914904,758905679,0.5619181990623474,0.7973914742469788,-0.21383599936962128,0.05186111852526665,-1.3603333234786987,11.731060028076172,-0.7156081795692444,-39.41006851196289,-10.618387222290039,9.110269546508789
1781536309944796,758922346,0.5627521276473999,0.7956377863883972,-0.21745476126670837,0.05463315546512604,0.4518723487854004,10.939767837524414,-1.359400749206543,-8.034289360046387,3.3024957180023193,33.000877380371094
1781536309974637,758939013,0.561714768409729,0.7945098280906677,-0.22274424135684967,0.060134053230285645,2.671826124191284,10.24123764038086,-1.5915913581848145,8.100848197937012,8.736971855163574,52.49225997924805
1781536309974940,758955680,0.5593541264533997,0.7933462262153625,-0.23126855492591858,0.0651160478591919,4.782147407531738,9.562776565551758,-1.6475263833999634,13.08057689666748,-8.604262351989746,68.76993560791016
1781536310004374,758972347,0.5561023950576782,0.7917118668556213,-0.24363549053668976,0.067711241543293,6.139129161834717,8.618402481079102,-2.0591838359832764,10.635514259338379,-37.61586380004883,81.69310760498047
1781536310004703,758989014,0.5523871183395386,0.7899640798568726,-0.25731515884399414,0.06793088465929031,6.852867603302002,7.611368179321289,-2.8751771450042725,8.150308609008789,-56.3014030456543,80.14531707763672
1781536310034598,759005681,0.5489016771316528,0.7888059020042419,-0.2685107886791229,0.06629305332899094,6.858481407165527,6.743551254272461,-3.925856828689575,7.02086877822876,-56.83536148071289,58.424720764160156
1781536310035090,759022348,0.5466156005859375,0.7886518836021423,-0.27421891689300537,0.06359419971704483,6.488392353057861,6.2482008934021,-4.961497783660889,4.844095706939697,-40.131160736083984,22.23284149169922
1781536310067371,759039015,0.5462707877159119,0.7893233895301819,-0.2736770808696747,0.06048436835408211,5.720834255218506,6.1751708984375,-5.567267417907715,-0.6354009509086609,-15.57671070098877,-15.629972457885742
1781536310068097,759055682,0.5477968454360962,0.7904148101806641,-0.26805269718170166,0.05754559114575386,4.828257083892822,6.402098655700684,-5.607597827911377,-6.7945990562438965,7.784734725952148,-44.1577262878418
1781536310095840,759072349,0.5508435368537903,0.7914742231369019,-0.2591424882411957,0.05464351549744606,4.061840534210205,6.768677234649658,-5.418117523193359,-13.83022689819336,23.175689697265625,-62.43310546875
1781536310127219,759089016,0.5550354719161987,0.7921707630157471,-0.24846209585666656,0.05165472254157066,3.4769773483276367,7.283019065856934,-5.1669087409973145,-20.942880630493164,31.585704803466797,-72.186279296875
1781536310128121,759105683,0.5600150227546692,0.7922559380531311,-0.23737984895706177,0.04863300547003746,3.0766351222991943,7.669552326202393,-4.706662178039551,-27.49383544921875,34.50455856323242,-73.739990234375
1781536310156283,759122350,0.5654732584953308,0.791566014289856,-0.22723054885864258,0.045058220624923706,2.795724630355835,8.154437065124512,-4.188629150390625,-34.30936050415039,28.940752029418945,-69.68302917480469
1781536310156858,759139017,0.5711151957511902,0.7900871634483337,-0.2189021110534668,0.04089093953371048,2.5451714992523193,8.642414093017578,-3.787282705307007,-39.872581481933594,19.16864013671875,-60.89853286743164
1781536310184431,759155684,0.5766885280609131,0.7880766987800598,-0.21215206384658813,0.03684843331575394,2.2881598472595215,8.928565979003906,-3.4667673110961914,-41.84527587890625,13.694592475891113,-51.009803771972656
1781536310184817,759172351,0.5819810628890991,0.7858856320381165,-0.20631733536720276,0.03340156748890877,2.187623977661133,9.055030822753906,-3.21382737159729,-40.40440368652344,12.92982292175293,-43.347618103027344
1781536310217070,759189018,0.5867398977279663,0.7838911414146423,-0.20075803995132446,0.030789557844400406,2.139043092727661,9.10708236694336,-3.0584511756896973,-35.61137771606445,15.536553382873535,-38.6685791015625
1781536310217564,759205685,0.5911167860031128,0.7821955680847168,-0.19470496475696564,0.029008910059928894,2.1032705307006836,9.032029151916504,-3.1130270957946777,-31.09339141845703,21.418384552001953,-38.301979064941406
1781536310248199,759222352,0.595524251461029,0.7806103825569153,-0.18768765032291412,0.02778474986553192,2.1785013675689697,8.880566596984863,-3.273798704147339,-29.873178482055664,28.348608016967773,-41.375083923339844
1781536310274494,759239019,0.6013023257255554,0.7781764268875122,-0.1794244647026062,0.02616712637245655,2.302121162414551,8.635108947753906,-3.561136245727539,-40.9777946472168,33.2689323425293,-48.836822509765625
1781536310275058,759255686,0.6098505258560181,0.7737409472465515,-0.16985389590263367,0.023613423109054565,2.5641064643859863,8.730639457702637,-4.056528091430664,-65.0016098022461,37.44319152832031,-57.73169708251953
1781536310303943,759272353,0.6218845844268799,0.766564667224884,-0.1588272601366043,0.020316658541560173,2.7693803310394287,8.636848449707031,-4.158719539642334,-95.68423461914062,44.11235809326172,-65.96360778808594
1781536310306020,759289020,0.6362864375114441,0.7572795152664185,-0.14639168977737427,0.01540151797235012,3.0587804317474365,8.058112144470215,-3.1242709159851074,-118.77222442626953,44.48675537109375,-78.34535217285156
1781536310337132,759305687,0.6514694690704346,0.7469696402549744,-0.13259217143058777,0.006625697948038578,2.9089884757995605,7.72396993637085,-2.1192901134490967,-131.07955932617188,31.242454528808594,-101.40254211425781
1781536310337703,759322354,0.6674742102622986,0.7353664040565491,-0.11699804663658142,-0.005140421912074089,3.005642890930176,8.376007080078125,-1.8572438955307007,-143.74818420410156,24.72471046447754,-122.88895416259766
1781536310364545,759339021,0.6845881938934326,0.7218009233474731,-0.10035824030637741,-0.01647379994392395,2.465333938598633,8.705988883972168,-2.4717843532562256,-158.06100463867188,32.5281982421875,-124.58935546875
1781536310364831,759355688,0.7051754593849182,0.7041072845458984,-0.07901840656995773,-0.026783056557178497,2.333597421646118,9.194482803344727,-2.5124332904815674,-194.5874786376953,61.66431427001953,-139.8773651123047
1781536310394174,759372355,0.7278451919555664,0.6825377345085144,-0.05570996552705765,-0.03578576818108559,1.7314444780349731,8.47199535369873,-1.3550008535385132,-223.1480712890625,77.95443725585938,-140.60838317871094
1781536310424603,759389022,0.748497486114502,0.660905659198761,-0.030583243817090988,-0.04495280608534813,1.0700125694274902,7.597751140594482,0.9281672239303589,-214.51422119140625,85.49185943603516,-150.45550537109375
1781536310425047,759405689,0.7642797827720642,0.6426172852516174,-0.003841897938400507,-0.05390043929219246,-0.12855589389801025,8.166951179504395,2.2144813537597656,-175.60745239257812,94.80083465576172,-158.88290405273438
1781536310454642,759422356,0.7761018872261047,0.6273787021636963,0.022878212854266167,-0.059489790350198746,-1.1852374076843262,9.587162017822266,2.5915615558624268,-141.96078491210938,110.54605865478516,-142.68931579589844
1781536310455117,759439023,0.7864641547203064,0.6127817034721375,0.04590332508087158,-0.06218044459819794,-1.5761767625808716,9.945947647094727,2.8869879245758057,-131.16543579101562,103.81475067138672,-111.77372741699219
1781536310484457,759455690,0.7974550127983093,0.5964614748954773,0.0629672110080719,-0.06583992391824722,-1.8048992156982422,9.527274131774902,3.1459712982177734,-140.26565551757812,66.55525970458984,-92.17028045654297
1781536310484946,759472357,0.808359682559967,0.5795572400093079,0.07351775467395782,-0.07255220413208008,-2.0402801036834717,8.75266170501709,4.2028350830078125,-138.83364868164062,18.09181022644043,-82.48737335205078
1781536310514471,759489024,0.8169010281562805,0.5653689503669739,0.08020137995481491,-0.08123554289340973,-2.886855125427246,8.944091796875,4.938934326171875,-111.37722778320312,-8.705453872680664,-77.8349609375
1781536310514857,759505691,0.8228074312210083,0.5549269318580627,0.08468841016292572,-0.08872728794813156,-3.338268995285034,9.430463790893555,5.06613826751709,-79.50476837158203,-12.864792823791504,-61.9987678527832
1781536310546716,759522358,0.8272420167922974,0.5467647314071655,0.08775393664836884,-0.09496788680553436,-3.2778542041778564,8.949722290039062,4.911934852600098,-60.83888626098633,-13.886309623718262,-49.05755615234375
1781536310574802,759539025,0.8316336870193481,0.5385258197784424,0.08980445563793182,-0.10154358297586441,-3.112697124481201,8.374951362609863,4.55039644241333,-60.23936462402344,-20.944095611572266,-47.213253021240234
1781536310575814,759555692,0.8356435298919678,0.5305514335632324,0.09211459755897522,-0.10830819606781006,-3.4342899322509766,8.251039505004883,4.8281965255737305,-57.37128829956055,-19.740272521972656,-49.35081481933594
1781536310615340,759572359,0.8380013108253479,0.5251006484031677,0.09534177929162979,-0.11372637003660202,-4.132257461547852,8.604877471923828,5.280397415161133,-38.370948791503906,-6.637164115905762,-44.58293151855469
1781536310615550,759589026,0.8382744193077087,0.5232287645339966,0.09903337061405182,-0.11713599413633347,-4.5405449867248535,8.777109146118164,5.613219738006592,-11.895285606384277,7.451595783233643,-33.95880126953125
1781536310634718,759605693,0.837104856967926,0.5241174101829529,0.10145388543605804,-0.11943244934082031,-4.724781513214111,8.813855171203613,5.499773979187012,9.480908393859863,7.3310112953186035,-22.239639282226562
1781536310636545,759622360,0.8357066512107849,0.5258588194847107,0.10167286545038223,-0.12136736512184143,-4.566591739654541,8.666529655456543,5.131509304046631,16.778579711914062,-3.18170428276062,-11.803630828857422
1781536310664822,759639027,0.8347947001457214,0.5272142887115479,0.100516676902771,-0.12271890044212341,-4.543658256530762,8.234086036682129,4.204429626464844,13.549444198608398,-9.64126968383789,-3.3307554721832275
1781536310665651,759655694,0.8345402479171753,0.5275235176086426,0.10035019367933273,-0.12325605005025864,-3.996927261352539,8.195642471313477,3.543433666229248,3.7654061317443848,-2.3521549701690674,-2.3980274200439453
1781536310696329,759672361,0.8341829180717468,0.5281491875648499,0.10081156343221664,-0.12261742353439331,-3.6146347522735596,8.41246223449707,3.3949966430664062,4.606745719909668,5.847540378570557,2.2117786407470703
1781536310724943,759689028,0.8337997198104858,0.5289008021354675,0.10169185698032379,-0.1212499663233757,-3.567913293838501,8.38696002960205,3.363466262817383,4.559350967407227,11.016777038574219,4.94169807434082
1781536310727243,759705695,0.833665668964386,0.5294519066810608,0.10224545001983643,-0.11928362399339676,-3.435497760772705,8.63292121887207,3.5659804344177246,2.3521759510040283,10.976272583007812,9.635472297668457
1781536310755362,759722362,0.8337826728820801,0.5297329425811768,0.10206934064626694,-0.1173543930053711,-3.0765299797058105,8.387670516967773,3.9130988121032715,0.509366512298584,6.257449150085449,12.098276138305664
1781536310756135,759739029,0.8340011239051819,0.5297691226005554,0.10102377831935883,-0.11654011905193329,-2.739100217819214,8.357795715332031,4.177582263946533,0.21964816749095917,-3.056658983230591,8.785293579101562
1781536310784567,759755696,0.8339101076126099,0.5302456617355347,0.09865249693393707,-0.11705408245325089,-2.5364437103271484,8.45788860321045,4.307850360870361,5.8589043617248535,-14.927313804626465,6.054867267608643
1781536310790961,759772363,0.8332456946372986,0.5316194295883179,0.09501618146896362,-0.11855405569076538,-2.587038278579712,8.541839599609375,4.118515968322754,14.782820701599121,-24.661649703979492,5.158868312835693
1781536310814794,759789030,0.8319687247276306,0.5338737368583679,0.09083291888237,-0.12065166234970093,-2.826620101928711,8.490443229675293,3.6808359622955322,22.902891159057617,-28.860042572021484,3.8093502521514893
1781536310815673,759805697,0.8302680850028992,0.5366788506507874,0.08707642555236816,-0.1226741224527359,-2.9615345001220703,8.511277198791504,3.259537696838379,27.20558738708496,-25.422468185424805,2.667492151260376
1781536310844485,759822364,0.8285844922065735,0.5393725037574768,0.08448014408349991,-0.12405044585466385,-2.9636855125427246,8.467550277709961,3.1576831340789795,25.1352481842041,-16.52226448059082,2.0258877277374268
1781536310880204,759839031,0.826784074306488,0.5421416163444519,0.08347009122371674,-0.12467499077320099,-2.8991153240203857,8.477191925048828,3.3730225563049316,24.20253562927246,-4.5685601234436035,0.3736068606376648
1781536310880843,759855698,0.8248775601387024,0.54500812292099,0.08314483612775803,-0.12502247095108032,-2.932401657104492,8.611409187316895,3.7030928134918213,24.401824951171875,0.4993653893470764,-0.636604905128479
1781536310905648,759872365,0.8230507969856262,0.5478125810623169,0.08252063393592834,-0.12521857023239136,-2.855639934539795,8.715654373168945,3.8388428688049316,23.92168617248535,-0.7288492321968079,1.3776779174804688
1781536310905963,759889032,0.821423351764679,0.5503635406494141,0.08136241883039474,-0.12547741830348969,-2.6262428760528564,8.6654634475708,3.8194098472595215,22.232202529907227,-4.317975997924805,3.06373929977417
1781536310945674,759905699,0.8201358914375305,0.5523973703384399,0.07986324280500412,-0.1259239763021469,-2.354207992553711,8.642838478088379,3.716087818145752,18.425722122192383,-7.589694499969482,3.2976977825164795
1781536310946652,759922366,0.8193075060844421,0.5537262558937073,0.07851958274841309,-0.12632402777671814,-2.1571385860443115,8.701048851013184,3.5941574573516846,12.54877758026123,-7.3968892097473145,2.977510452270508
1781536310982348,759939033,0.8189138174057007,0.5543654561042786,0.0774378851056099,-0.12674175202846527,-2.1426031589508057,8.65196418762207,3.5506904125213623,6.791024684906006,-6.820037364959717,1.8822588920593262
1781536310982550,759955700,0.8186440467834473,0.5547279119491577,0.07670295238494873,-0.12734287977218628,-2.2369470596313477,8.615107536315918,3.666947841644287,4.555546760559082,-5.87232780456543,-0.5154172778129578
1781536310995292,759972367,0.818134605884552,0.5553852915763855,0.07608431577682495,-0.12811902165412903,-2.4317245483398438,8.711925506591797,3.6455576419830322,7.121548652648926,-5.498381614685059,-2.0009796619415283
1781536311030721,759989034,0.8173209428787231,0.5564836263656616,0.07535436004400253,-0.12897652387619019,-2.642104387283325,8.711012840270996,3.5399177074432373,10.905540466308594,-5.886966228485107,-2.072375774383545
1781536311031001,760005701,0.8164798617362976,0.5576501488685608,0.07450226694345474,-0.12975655496120453,-2.7678401470184326,8.798423767089844,3.325869083404541,11.462092399597168,-6.202284336090088,-1.1580531597137451
1781536311054796,760022368,0.815868079662323,0.5585330724716187,0.07376020401716232,-0.13023006916046143,-2.758648633956909,8.795576095581055,3.2630255222320557,8.734688758850098,-4.780944347381592,0.20163603127002716
1781536311055199,760039035,0.8154488801956177,0.5591501593589783,0.0733192190527916,-0.13045814633369446,-2.6932413578033447,8.762394905090332,3.326159954071045,6.106804847717285,-2.486301898956299,0.46145766973495483
1781536311092648,760055702,0.8150846362113953,0.5596643090248108,0.07326043397188187,-0.13056184351444244,-2.635133981704712,8.733551979064941,3.475050926208496,4.912073612213135,0.013683585450053215,-0.31248775124549866
1781536311093148,760072369,0.814572274684906,0.5603368878364563,0.07346942275762558,-0.13075770437717438,-2.575843572616577,8.715007781982422,3.6770858764648438,6.1755876541137695,1.3766379356384277,-1.912077784538269
1781536311116325,760089036,0.8137938380241394,0.5614061951637268,0.0733971819281578,-0.1310577094554901,-2.567767858505249,8.86820125579834,3.6246345043182373,9.730646133422852,-0.10775265842676163,-1.4506908655166626
1781536311116834,760105703,0.8129664659500122,0.5625829696655273,0.0730794370174408,-0.13132362067699432,-2.5787482261657715,8.829873085021973,3.4953484535217285,10.726615905761719,-1.2275915145874023,-0.3026653826236725
1781536311144285,760122370,0.8122742176055908,0.5635578632354736,0.07277941703796387,-0.13159365952014923,-2.571012258529663,8.799988746643066,3.3444254398345947,9.062215805053711,-1.3943172693252563,-0.3741375803947449
1781536311174851,760139037,0.8117424249649048,0.5643250942230225,0.07271821051836014,-0.13162077963352203,-2.588881492614746,8.859148979187012,3.250955581665039,6.943111896514893,0.6120476722717285,0.09780853241682053
1781536311175165,760155704,0.8113229870796204,0.5649574398994446,0.07286594063043594,-0.13141188025474548,-2.5420429706573486,8.792099952697754,3.2831010818481445,5.446176528930664,2.5158910751342773,0.6384414434432983
1781536311224666,760172371,0.8108777403831482,0.5656219124794006,0.07313992828130722,-0.1311492919921875,-2.5475196838378906,8.821224212646484,3.2766995429992676,5.583831310272217,3.4709372520446777,0.43954595923423767
1781536311226859,760189038,0.810444176197052,0.566261887550354,0.07340367883443832,-0.13092093169689178,-2.56411075592041,8.775247573852539,3.2708487510681152,5.4289774894714355,3.252896547317505,0.2859594523906708
1781536311234316,760205705,0.8100405931472778,0.5668302178382874,0.07352502644062042,-0.1308916062116623,-2.568518877029419,8.825109481811523,3.2889726161956787,5.141096591949463,1.604968786239624,-0.27848049998283386
1781536311234501,760222372,0.8098119497299194,0.5671603083610535,0.07349225878715515,-0.1308937966823578,-2.588777542114258,8.850984573364258,3.1993117332458496,3.2865381240844727,0.32139456272125244,0.1832524538040161
1781536311269688,760239039,0.8097495436668396,0.567244291305542,0.07356279343366623,-0.13087591528892517,-2.59893798828125,8.818299293518066,3.21052622795105,1.1638858318328857,0.669048547744751,-0.08294672518968582
1781536311271394,760255706,0.8096894025802612,0.5673361420631409,0.07379079610109329,-0.13072210550308228,-2.597137451171875,8.852667808532715,3.2254159450531006,0.9885029792785645,2.0818066596984863,0.06544685363769531
1781536311298561,760272373,0.8095953464508057,0.5674676299095154,0.07412011921405792,-0.13054819405078888,-2.5747294425964355,8.808653831481934,3.322214365005493,1.2393922805786133,2.7771148681640625,-0.22891353070735931
1781536311327662,760289040,0.8094373941421509,0.5676838159561157,0.07439196854829788,-0.13043221831321716,-2.597668409347534,8.806547164916992,3.3129186630249023,2.0418384075164795,2.3401877880096436,-0.34166064858436584
1781536311330279,760305707,0.8092272281646729,0.5679509043693542,0.07458264380693436,-0.1304645985364914,-2.6395351886749268,8.7770357131958,3.2557852268218994,2.6781537532806396,1.3821126222610474,-0.8716578483581543
1781536311355005,760322374,0.8090685606002808,0.5681517124176025,0.07456263899803162,-0.13058584928512573,-2.715315103530884,8.858760833740234,3.1785895824432373,2.3429794311523438,-0.22315064072608948,-0.5310537219047546
1781536311355320,760339041,0.8090317249298096,0.5682042837142944,0.07459188997745514,-0.1305689960718155,-2.7123353481292725,8.79727840423584,3.1563761234283447,0.9267250895500183,0.3944803774356842,0.07872702181339264
1781536311385099,760355708,0.8090011477470398,0.5682467818260193,0.07481035590171814,-0.13044852018356323,-2.6997249126434326,8.851175308227539,3.1942293643951416,0.6230353116989136,1.838780403137207,-0.08288269490003586
1781536311386522,760372375,0.8089971542358398,0.5682942867279053,0.07505308836698532,-0.13012616336345673,-2.6281697750091553,8.861627578735352,3.2195515632629395,0.4206245243549347,2.753019332885742,0.9719122648239136
1781536311415013,760389042,0.8089432120323181,0.5683912038803101,0.07528586685657501,-0.12990380823612213,-2.578179359436035,8.775833129882812,3.266004800796509,0.9504168629646301,2.377134323120117,0.4351149797439575
1781536311415510,760405709,0.8088175654411316,0.5685898065567017,0.07541780173778534,-0.12974131107330322,-2.5348331928253174,8.832656860351562,3.198279857635498,1.9175652265548706,1.710729718208313,0.4844193756580353
1781536311444667,760422376,0.8086656332015991,0.56879723072052,0.07544530183076859,-0.1297621876001358,-2.543246269226074,8.798279762268066,3.1726980209350586,2.2569847106933594,0.43432092666625977,-0.14690163731575012
1781536311474768,760439043,0.80857253074646,0.5689101815223694,0.07531917840242386,-0.12992122769355774,-2.6191623210906982,8.825261116027832,3.06939435005188,1.7110881805419922,-1.0749648809432983,-0.3120266795158386
1781536311475385,760455710,0.8086225390434265,0.5688374638557434,0.07505390793085098,-0.13008056581020355,-2.671055555343628,8.857667922973633,3.026787042617798,0.24127162992954254,-2.0896503925323486,0.26238933205604553
1781536311504457,760472377,0.8086998462677002,0.5687459111213684,0.07463470846414566,-0.13024207949638367,-2.6748573780059814,8.832764625549316,3.0598180294036865,0.16806411743164062,-2.98551869392395,0.867073118686676
1781536311505733,760489044,0.8086986541748047,0.5687717795372009,0.07406309247016907,-0.1304626315832138,-2.702709913253784,8.82563304901123,3.0534698963165283,1.2932171821594238,-3.9185636043548584,1.1254667043685913
1781536311534992,760505711,0.8085376024246216,0.5690156817436218,0.07319257408380508,-0.13088759779930115,-2.6836445331573486,8.802254676818848,3.0117692947387695,3.50067400932312,-6.10355806350708,1.1263635158538818
1781536311536783,760522378,0.8083150386810303,0.5693591833114624,0.07213573157787323,-0.13135454058647156,-2.6520018577575684,8.77364444732666,3.002040386199951,4.481538772583008,-7.183775424957275,1.617551326751709
1781536311564617,760539045,0.8082496523857117,0.569480836391449,0.07103721797466278,-0.1318274885416031,-2.5896432399749756,8.838504791259766,2.9573960304260254,2.672525405883789,-7.717990875244141,1.7802174091339111
1781536311564952,760555712,0.8084069490432739,0.5692893862724304,0.07013773173093796,-0.13217107951641083,-2.533453941345215,8.84058952331543,3.037801504135132,-0.1843090057373047,-6.4979166984558105,1.7689348459243774
1781536311595273,760572379,0.8086525797843933,0.5689706802368164,0.06945355236530304,-0.13240227103233337,-2.478769063949585,8.871183395385742,3.1669344902038574,-1.4897245168685913,-5.0201921463012695,1.5696744918823242
1781536311624627,760589046,0.8089376091957092,0.5685790777206421,0.06904146075248718,-0.13255932927131653,-2.462226390838623,8.843668937683105,3.2823104858398438,-2.3328299522399902,-3.30206561088562,0.9176453351974487
1781536311628870,760605713,0.8092547059059143,0.5681276321411133,0.0689176693558693,-0.13262276351451874,-2.493345022201538,8.833571434020996,3.292001485824585,-3.097228765487671,-1.4020905494689941,0.3108293116092682
1781536311654679,760622380,0.8093786239624023,0.5679371356964111,0.06902027130126953,-0.13262882828712463,-2.497009515762329,8.851458549499512,3.4582669734954834,-1.1239877939224243,0.4115384519100189,-0.3073139786720276
1781536311655075,760639047,0.8094265460968018,0.5678570866584778,0.06903533637523651,-0.13267110288143158,-2.5187299251556396,8.87770938873291,3.521716594696045,-0.114232636988163,-0.07891273498535156,-0.18444985151290894
1781536311684974,760655714,0.8095222115516663,0.5677088499069214,0.06894952058792114,-0.13276655972003937,-2.5107192993164062,8.866312026977539,3.5093867778778076,-0.5602009892463684,-0.9323791861534119,-0.07617217302322388
1781536311685606,760672381,0.8095998764038086,0.5675889849662781,0.06910479813814163,-0.13272523880004883,-2.4671783447265625,8.844808578491211,3.5767555236816406,-0.6141156554222107,0.9786932468414307,-0.2595846951007843
1781536311714868,760689048,0.8096008896827698,0.5675771832466125,0.06941166520118713,-0.13260918855667114,-2.4838409423828125,8.894638061523438,3.592644453048706,0.1160319373011589,2.2506840229034424,-0.45463827252388
1781536311715455,760705715,0.8095782399177551,0.5676082372665405,0.0695299431681633,-0.13255217671394348,-2.5296919345855713,8.849905014038086,3.5122039318084717,0.6492626070976257,1.0221195220947266,-0.049842312932014465
1781536311744541,760722382,0.8095124363899231,0.5677133798599243,0.06951723247766495,-0.13251005113124847,-2.6087496280670166,8.843334197998047,3.325434923171997,1.3582990169525146,0.32367411255836487,0.37425917387008667
1781536311774366,760739049,0.8094527721405029,0.5678302645683289,0.06959816068410873,-0.13233192265033722,-2.6424694061279297,8.832418441772461,3.1529428958892822,1.2502262592315674,1.3837836980819702,0.7773517370223999
1781536311774780,760755716,0.8094155788421631,0.5679205060005188,0.0698690190911293,-0.1320301741361618,-2.59382963180542,8.7926607131958,3.2005257606506348,0.7817828059196472,2.8879282474517822,0.7316844463348389
1781536311805179,760772383,0.8092889785766602,0.5681131482124329,0.07024988532066345,-0.13177374005317688,-2.5589637756347656,8.837095260620117,3.266690731048584,1.6217002868652344,3.458963632583618,0.01862684078514576
1781536311805496,760789050,0.809106707572937,0.5683858394622803,0.07071041315793991,-0.13147121667861938,-2.5415992736816406,8.841434478759766,3.3059871196746826,2.1907503604888916,4.181612491607666,-0.04872816428542137
1781536311835269,760805717,0.8088825345039368,0.56870037317276,0.07125388085842133,-0.131196528673172,-2.547365427017212,8.865859031677246,3.3135979175567627,2.525841474533081,4.592607021331787,-0.5455248951911926
1781536311835836,760822384,0.8086671233177185,0.5690290927886963,0.07168159633874893,-0.13086621463298798,-2.5646634101867676,8.871426582336426,3.2607614994049072,2.648756742477417,4.175017833709717,0.2305847406387329
1781536311865163,760839051,0.8084975481033325,0.56929612159729,0.07194796204566956,-0.13060517609119415,-2.5661659240722656,8.834598541259766,3.211732864379883,2.306135416030884,2.9288315773010254,0.4869294762611389
1781536311865556,760855718,0.8083710074424744,0.5695021748542786,0.07209043949842453,-0.1304115355014801,-2.5636959075927734,8.833617210388184,3.163525104522705,1.9436644315719604,1.901070475578308,0.6056570410728455
1781536311894905,760872385,0.8082455396652222,0.5697187781333923,0.07226624339818954,-0.13014470040798187,-2.553051471710205,8.843854904174805,3.188977003097534,1.9313318729400635,2.3816416263580322,0.887499213218689
1781536311924771,760889052,0.8080638647079468,0.5700032711029053,0.07251426577568054,-0.12988893687725067,-2.5153627395629883,8.838754653930664,3.2504916191101074,2.4696593284606934,2.8279812335968018,0.5260784029960632
1781536311925731,760905719,0.8078452944755554,0.570320188999176,0.0727313831448555,-0.12973688542842865,-2.534229278564453,8.838167190551758,3.2084665298461914,2.8740203380584717,2.2980546951293945,0.053536947816610336
1781536311954814,760922386,0.8076560497283936,0.570590078830719,0.0729561373591423,-0.12960197031497955,-2.5576744079589844,8.850835800170898,3.169168710708618,2.499953031539917,2.216881513595581,-0.06950005888938904
1781536311955303,760939053,0.8075288534164429,0.5707790851593018,0.07320109754800797,-0.12942390143871307,-2.566603660583496,8.88125228881836,3.1307170391082764,1.7673977613449097,2.3947293758392334,0.10483916848897934
1781536311986965,760955720,0.8074289560317993,0.5709365010261536,0.07343324273824692,-0.1292208433151245,-2.578083038330078,8.85346508026123,3.1202285289764404,1.4831225872039795,2.380284070968628,0.3019416928291321
1781536311987536,760972387,0.8073534965515137,0.5710726380348206,0.07359623908996582,-0.128998264670372,-2.576774835586548,8.836745262145996,3.0934858322143555,1.3202897310256958,2.0423245429992676,0.692740261554718
1781536312014762,760989054,0.807269811630249,0.5711925029754639,0.07364960014820099,-0.1289609968662262,-2.5395736694335938,8.815054893493652,3.1289877891540527,1.4531043767929077,0.6952247023582458,0.07843248546123505
1781536312015324,761005721,0.8071780204772949,0.5713137984275818,0.07369556277990341,-0.12897232174873352,-2.5356249809265137,8.877175331115723,3.120537757873535,1.523629069328308,0.4693078398704529,-0.16905662417411804
1781536312044320,761022388,0.8070372343063354,0.5714941024780273,0.07377339154481888,-0.12901000678539276,-2.5358800888061523,8.878893852233887,3.228534698486328,2.0285773277282715,0.619430422782898,-0.4547535181045532
1781536312074476,761039055,0.8068856596946716,0.5716904997825623,0.07370271533727646,-0.12912841141223907,-2.5499958992004395,8.88727855682373,3.2296085357666016,2.3331570625305176,-0.5018680691719055,-0.3211064338684082
1781536312074846,761055722,0.8067333102226257,0.5719012022018433,0.07350624352693558,-0.12925921380519867,-2.5774378776550293,8.876321792602539,3.1932451725006104,2.5342869758605957,-1.2343720197677612,0.11059562861919403
1781536312105083,761072389,0.8066370487213135,0.5720513463020325,0.07332781702280045,-0.12929528951644897,-2.595168113708496,8.873744010925293,3.095440149307251,1.9146836996078491,-0.8438871502876282,0.5839887857437134
1781536312105345,761089056,0.8066268563270569,0.5720924139022827,0.07321906834840775,-0.1292392909526825,-2.607822895050049,8.83973503112793,3.0833194255828857,0.8623475432395935,-0.23573929071426392,0.8421647548675537
1781536312134654,761105723,0.8066579699516296,0.5720627307891846,0.07324124127626419,-0.12916399538516998,-2.589427947998047,8.82269287109375,3.146583318710327,0.18084487318992615,0.48212704062461853,0.4354606866836548
1781536312135055,761122390,0.8066072463989258,0.5721471309661865,0.0733228549361229,-0.12906061112880707,-2.5585780143737793,8.876812934875488,3.2340781688690186,1.0691957473754883,1.0654691457748413,0.34252506494522095
1781536312164746,761139057,0.8064959049224854,0.5723093748092651,0.07335371524095535,-0.12901943922042847,-2.520660638809204,8.861832618713379,3.2962377071380615,1.8160619735717773,0.6387486457824707,0.18179252743721008
1781536312165727,761155724,0.8063867688179016,0.572461724281311,0.07326354831457138,-0.12907741963863373,-2.5431227684020996,8.886656761169434,3.249535083770752,1.9116867780685425,-0.43176600337028503,0.10454461723566055
1781536312194626,761172391,0.806323766708374,0.5725513696670532,0.07317880541086197,-0.12912118434906006,-2.5415847301483154,8.878026008605957,3.1615874767303467,1.3717074394226074,-0.423915833234787,0.1708046942949295
1781536312224370,761189058,0.806290328502655,0.572604775428772,0.07320886105298996,-0.12907624244689941,-2.5784990787506104,8.86786937713623,3.1051604747772217,0.9073490500450134,0.514552652835846,0.21820098161697388
1781536312224826,761205725,0.8062554001808167,0.5726571083068848,0.07332482933998108,-0.12899640202522278,-2.622833013534546,8.852519035339355,3.14005970954895,0.8132993578910828,1.128028154373169,0.07159390300512314
1781536312254315,761222392,0.806198000907898,0.5727355480194092,0.07348152250051498,-0.1289183348417282,-2.564800977706909,8.829986572265625,3.14912748336792,1.012105107307434,1.381850004196167,-0.10512733459472656
1781536312255434,761239059,0.8060516715049744,0.5729207396507263,0.07366685569286346,-0.1289040595293045,-2.563633680343628,8.863479614257812,3.1819465160369873,1.9606844186782837,1.4287084341049194,-0.596788763999939
1781536312284309,761255726,0.8058962225914001,0.5731134414672852,0.07374275475740433,-0.12897612154483795,-2.5284619331359863,8.879450798034668,3.190034866333008,2.179877758026123,0.49369120597839355,-0.6484623551368713
1781536312284675,761272393,0.8057458996772766,0.5732886791229248,0.07379268109798431,-0.12910833954811096,-2.53855299949646,8.871145248413086,3.131901264190674,2.1172292232513428,0.09478619694709778,-0.8849828839302063
1781536312314272,761289060,0.8056179881095886,0.573451042175293,0.07380560785531998,-0.12917719781398773,-2.59124493598938,8.876996040344238,3.0924923419952393,1.9580073356628418,0.1173381581902504,-0.37479057908058167
1781536312344492,761305727,0.8055370450019836,0.573566734790802,0.07383500784635544,-0.12915222346782684,-2.627199172973633,8.900930404663086,3.0604662895202637,1.4526243209838867,0.5130608081817627,0.09762280434370041
1781536312344961,761322394,0.8054701685905457,0.5736792087554932,0.07398336380720139,-0.12898580729961395,-2.6342828273773193,8.879521369934082,3.0286529064178467,1.2016518115997314,1.719604730606079,0.4229617416858673
1781536312375023,761339061,0.8054495453834534,0.5737321376800537,0.07420218735933304,-0.12875136733055115,-2.6146721839904785,8.862896919250488,3.060192346572876,0.5917494297027588,2.3016278743743896,0.5323663353919983
1781536312375455,761355728,0.8054357767105103,0.57377028465271,0.07435853779315948,-0.1285778284072876,-2.547987461090088,8.841048240661621,3.114197015762329,0.5686787366867065,1.6989414691925049,0.4402182698249817
1781536312404868,761372395,0.8053750395774841,0.5738503932952881,0.07442305237054825,-0.12856340408325195,-2.503168821334839,8.89543342590332,3.1918628215789795,1.1491971015930176,0.6234451532363892,-0.0992492139339447
1781536312405293,761389062,0.8052487969398499,0.5740175843238831,0.0743831917643547,-0.1286310851573944,-2.4996063709259033,8.897451400756836,3.1935744285583496,2.025740385055542,-0.16762231290340424,-0.1566728800535202
1781536312435772,761405729,0.805121660232544,0.5741806030273438,0.07435426861047745,-0.12871603667736053,-2.5512773990631104,8.890083312988281,3.1426308155059814,2.00476336479187,-0.17704777419567108,-0.29879772663116455
1781536312436928,761422396,0.8049840927124023,0.5743602514266968,0.07438462227582932,-0.1287577748298645,-2.625674247741699,8.876565933227539,3.0832602977752686,2.0646207332611084,0.342051237821579,-0.29513514041900635
1781536312463423,761439063,0.8048375248908997,0.5745596885681152,0.0744633600115776,-0.12873926758766174,-2.6665735244750977,8.878727912902832,3.0441787242889404,2.136669158935547,0.8693398237228394,-0.15051305294036865
1781536312494347,761455730,0.8047095537185669,0.5747493505477905,0.07455695420503616,-0.12863720953464508,-2.678445816040039,8.857353210449219,3.045175790786743,1.9517323970794678,1.2631734609603882,0.2654564082622528
1781536312494678,761472397,0.8046673536300659,0.5748279094696045,0.07462309300899506,-0.12851139903068542,-2.624114990234375,8.878173828125,3.0131406784057617,1.0107091665267944,1.063381552696228,0.5249643325805664
1781536312524665,761489064,0.8046653866767883,0.5748579502105713,0.0745672658085823,-0.12842175364494324,-2.604161262512207,8.878114700317383,3.0021581649780273,0.7092732787132263,0.1818181425333023,0.8175636529922485
1781536312525131,761505731,0.8046989440917969,0.5748341083526611,0.07436232268810272,-0.12843841314315796,-2.5735747814178467,8.878805160522461,2.999187707901001,0.4561045169830322,-1.1295585632324219,0.8225198984146118
1781536312554843,761522398,0.8048073053359985,0.5747092962265015,0.07394178956747055,-0.1285606473684311,-2.5378568172454834,8.876709938049316,2.955562114715576,-0.15445742011070251,-2.8669323921203613,1.104669451713562
1781536312555109,761539065,0.8050447106361389,0.5743947625160217,0.07332068681716919,-0.1288355141878128,-2.5744211673736572,8.864675521850586,2.9093356132507324,-1.4599881172180176,-4.813446521759033,1.0699002742767334
1781536312584098,761555732,0.8054410815238953,0.5738579034805298,0.07264707237482071,-0.1291317343711853,-2.6149961948394775,8.86158561706543,2.9232096672058105,-3.2626869678497314,-5.465404510498047,1.187757134437561
1781536312585012,761572399,0.8059202432632446,0.5732151865959167,0.0723986029624939,-0.129135400056839,-2.5995585918426514,8.915494918823242,3.0435478687286377,-4.701108932495117,-2.0931596755981445,1.1515406370162964
1781536312614586,761589066,0.8063806295394897,0.5726044774055481,0.07243635505437851,-0.12894977629184723,-2.5586509704589844,8.853139877319336,3.2472147941589355,-4.798130035400391,0.27673882246017456,1.0715521574020386
1781536312644397,761605733,0.8067360520362854,0.5721143484115601,0.07243885099887848,-0.12890031933784485,-2.5208871364593506,8.875076293945312,3.411299228668213,-3.6159756183624268,-0.29525044560432434,0.4223470389842987
1781536312644812,761622400,0.8069130778312683,0.5718698501586914,0.07222862541675568,-0.1289946734905243,-2.5392849445343018,8.840986251831055,3.415956497192383,-1.2890232801437378,-1.7328529357910156,0.4252604842185974
1781536312674689,761639067,0.8069292902946472,0.571820080280304,0.07205123454332352,-0.12921415269374847,-2.634982109069824,8.88768196105957,3.3910927772521973,0.4593188464641571,-1.7896357774734497,-0.444303423166275
1781536312675317,761655734,0.8068884611129761,0.5718841552734375,0.07173631340265274,-0.1293604075908661,-2.6811723709106445,8.880812644958496,3.2940399646759033,1.4031084775924683,-2.1346516609191895,0.5091228485107422
1781536312705076,761672401,0.8068966269493103,0.5719007253646851,0.07130955904722214,-0.12947264313697815,-2.666317939758301,8.884150505065918,3.132253885269165,1.030904769897461,-2.687451124191284,1.1589298248291016
1781536312706398,761689068,0.8070138692855835,0.5718257427215576,0.07112033665180206,-0.12917621433734894,-2.648183822631836,8.912461280822754,2.9080557823181152,-0.3184298872947693,0.10168881714344025,2.5450634956359863
1781536312734332,761705735,0.8071412444114685,0.571736216545105,0.07147499173879623,-0.12857986986637115,-2.5682177543640137,8.755407333374023,3.1527259349823,-1.070649266242981,4.279235363006592,2.073136568069458
1781536312734517,761722402,0.8071148991584778,0.5718137621879578,0.07158952206373215,-0.12833625078201294,-2.427586793899536,8.940773963928223,3.311455488204956,0.8470823764801025,1.7841613292694092,1.0064703226089478
1781536312764302,761739069,0.8070675730705261,0.5719420313835144,0.07114066183567047,-0.12831158936023712,-2.4052140712738037,8.917174339294434,3.3308873176574707,1.816529631614685,-2.147125244140625,2.011442184448242
1781536312795194,761755736,0.8070864677429199,0.5719667077064514,0.07041292637586594,-0.1284850835800171,-2.3814141750335693,8.928336143493652,3.255269765853882,1.3267828226089478,-4.596353530883789,2.014765739440918
1781536312795502,761772403,0.8070896863937378,0.5720131993293762,0.06972645223140717,-0.1286313533782959,-2.386521816253662,8.862443923950195,3.1861770153045654,1.4604554176330566,-4.232818603515625,1.9988341331481934
1781536312824871,761789070,0.8071256875991821,0.5719966292381287,0.06930726021528244,-0.12870509922504425,-2.465747356414795,8.844834327697754,3.1001274585723877,0.7110341787338257,-2.53505539894104,1.348098874092102
1781536312825402,761805737,0.8071736693382263,0.5719455480575562,0.06919557601213455,-0.12869136035442352,-2.5176680088043213,8.808517456054688,3.054514169692993,0.15821604430675507,-0.5201042294502258,0.6180664896965027
1781536312855182,761822404,0.8071847558021545,0.5719162225723267,0.0693167969584465,-0.12868709862232208,-2.5281612873077393,8.84871768951416,3.1504933834075928,0.22172272205352783,0.7709102034568787,-0.37262633442878723
1781536312856265,761839071,0.8071420192718506,0.571979284286499,0.06943541765213013,-0.12861080467700958,-2.554602861404419,8.901025772094727,3.193263530731201,0.9139827489852905,1.1473015546798706,0.03385358303785324
1781536312884444,761855738,0.807091474533081,0.5720506310462952,0.06952676177024841,-0.12856163084506989,-2.523064136505127,8.90285587310791,3.2453105449676514,1.0284459590911865,0.9008305668830872,-0.011961131356656551
1781536312884815,761872405,0.8070367574691772,0.5721434950828552,0.06954412162303925,-0.12848219275474548,-2.510685682296753,8.90070629119873,3.2120509147644043,1.2162638902664185,0.6296946406364441,0.4532230794429779
1781536312914177,761889072,0.8070338368415833,0.5721794366836548,0.06961985677480698,-0.12829960882663727,-2.5189273357391357,8.88411808013916,3.1652605533599854,0.596346914768219,1.28473961353302,0.8142725825309753
1781536312944437,761905739,0.8070017695426941,0.5722692012786865,0.06986136734485626,-0.12796922028064728,-2.47175931930542,8.871252059936523,3.1507222652435303,0.7928026914596558,2.8480939865112305,0.9824519753456116
1781536312944819,761922406,0.806887149810791,0.5724478363990784,0.07017352432012558,-0.12772227823734283,-2.4340572357177734,8.818861961364746,3.1871604919433594,1.5892231464385986,3.0293614864349365,0.21076050400733948
1781536312973756,761939073,0.8067649602890015,0.5726246237754822,0.07036662101745605,-0.12759573757648468,-2.4517204761505127,8.876049995422363,3.1717522144317627,1.7720848321914673,1.897817611694336,0.003361666575074196
1781536312975412,761955740,0.8066731691360474,0.5727468729019165,0.07043004781007767,-0.12759153544902802,-2.4388720989227295,8.881257057189941,3.190716505050659,1.5230977535247803,0.6339911818504333,-0.16536839306354523
1781536313004639,761972407,0.80663001537323,0.5728012323379517,0.07042571157217026,-0.1276220828294754,-2.435009002685547,8.905902862548828,3.177110433578491,1.031903624534607,0.03936031460762024,-0.08165328204631805
1781536313005203,761989074,0.806621789932251,0.5728062391281128,0.07040609419345856,-0.1276632696390152,-2.4536681175231934,8.900228500366211,3.185474395751953,0.6397860050201416,-0.14720898866653442,-0.07501959055662155
1781536313034621,762005741,0.8066114783287048,0.5728262662887573,0.07040877640247345,-0.12763701379299164,-2.4752578735351562,8.88841724395752,3.134127378463745,0.6789990663528442,0.25651758909225464,0.216075137257576
1781536313035042,762022408,0.8065944314002991,0.5728662014007568,0.07050926983356476,-0.12750963866710663,-2.498932361602783,8.898688316345215,3.1550133228302,0.6819061636924744,1.2191965579986572,0.39523598551750183
1781536313064514,762039075,0.80654376745224,0.5729395747184753,0.07063717395067215,-0.12742936611175537,-2.509335994720459,8.846217155456543,3.171736717224121,0.9981973767280579,1.2310168743133545,0.012518206611275673
1781536313094701,762055742,0.8064824342727661,0.5730237364768982,0.07061735540628433,-0.12745070457458496,-2.5097272396087646,8.881199836730957,3.1653854846954346,1.2799242734909058,0.02558068558573723,0.026502743363380432
1781536313095111,762072409,0.8064180612564087,0.5731079578399658,0.07044513523578644,-0.12757471203804016,-2.503438711166382,8.885964393615723,3.1458492279052734,1.4758869409561157,-1.2219305038452148,0.05513773486018181
1781536313124751,762089076,0.8063824772834778,0.5731595158576965,0.07014498859643936,-0.127732515335083,-2.4951748847961426,8.881031036376953,3.1249537467956543,1.3110692501068115,-2.1066062450408936,0.38118740916252136
1781536313125189,762105743,0.8064331412315369,0.573093056678772,0.06971899420022964,-0.12794463336467743,-2.506971836090088,8.8873929977417,3.0022895336151123,0.4528389871120453,-3.1638214588165283,0.5944003462791443
1781536313154463,762122410,0.806621253490448,0.5728499889373779,0.06926443427801132,-0.12809468805789948,-2.5008647441864014,8.861747741699219,2.9494988918304443,-1.0734666585922241,-3.2987494468688965,1.0878546237945557
1781536313154884,762139077,0.8069540858268738,0.5723989009857178,0.0687832459807396,-0.12827356159687042,-2.4836387634277344,8.85643482208252,2.960181713104248,-2.761445999145508,-3.8128600120544434,1.0611789226531982
1781536313183164,762155744,0.8073800206184387,0.5718146562576294,0.06835847347974777,-0.12842579185962677,-2.504075765609741,8.847020149230957,2.9890761375427246,-3.930140733718872,-3.556580066680908,1.0059196949005127
1781536313184396,762172411,0.8078308701515198,0.5712051391601562,0.0682201012969017,-0.12837639451026917,-2.474036455154419,8.864200592041016,3.101515531539917,-4.517440319061279,-1.2086760997772217,1.0096464157104492
1781536313214369,762189078,0.8081242442131042,0.570796549320221,0.068406842648983,-0.12824873626232147,-2.4219069480895996,8.8717041015625,3.4083640575408936,-3.106231212615967,1.156227707862854,0.12258878350257874
1781536313244336,762205745,0.8082523941993713,0.5706040859222412,0.0685219094157219,-0.12823528051376343,-2.424147844314575,8.924736976623535,3.544060707092285,-1.138266682624817,0.5787317752838135,-0.27525970339775085
1781536313244658,762222412,0.8083112835884094,0.57052081823349,0.06820514798164368,-0.12840335071086884,-2.4431676864624023,8.940404891967773,3.4760959148406982,0.21001775562763214,-2.4028937816619873,0.3995005190372467
1781536313275068,762239079,0.8084010481834412,0.5704121589660645,0.06773815304040909,-0.12856809794902802,-2.466982841491699,8.890548706054688,3.18471622467041,0.08005888760089874,-3.260765314102173,1.022721529006958
1781536313275524,762255746,0.8085274696350098,0.5702477693557739,0.06757313013076782,-0.1285889744758606,-2.461977481842041,8.810392379760742,3.261528730392456,-0.7072947025299072,-1.084633708000183,0.644319474697113
1781536313304567,762272413,0.8086035251617432,0.5701475143432617,0.06732993572950363,-0.12868356704711914,-2.48879337310791,8.86093807220459,3.271242618560791,-0.04825432971119881,-1.7278072834014893,0.5262001156806946
1781536313305114,762289080,0.8086467385292053,0.5701000094413757,0.0669979453086853,-0.12879572808742523,-2.4470255374908447,8.859601974487305,3.3679378032684326,0.46106061339378357,-2.228125810623169,0.7721908688545227
1781536313334695,762305747,0.8086122274398804,0.5701655149459839,0.06659334152936935,-0.12893298268318176,-2.4395034313201904,8.900583267211914,3.4567644596099854,1.4710720777511597,-2.5942466259002686,0.9001904726028442
1781536313335225,762322414,0.8085546493530273,0.5702796578407288,0.06605018675327301,-0.12906676530838013,-2.409666061401367,8.880128860473633,3.4391322135925293,1.9558048248291016,-3.296213150024414,1.4643099308013916
1781536313364291,762339081,0.8084787130355835,0.5704226493835449,0.06544563174247742,-0.12922002375125885,-2.4212355613708496,8.880537033081055,3.3924131393432617,2.2536680698394775,-3.679431438446045,1.5932574272155762
1781536313394560,762355748,0.808393120765686,0.5705794095993042,0.06485459953546524,-0.1293618530035019,-2.41837215423584,8.85670280456543,3.280923366546631,2.3517134189605713,-3.541698694229126,1.6012099981307983
1781536313395028,762372415,0.8083679676055908,0.5706372857093811,0.06442545354366302,-0.12947775423526764,-2.4418857097625732,8.827550888061523,3.1466145515441895,1.410369634628296,-2.655306816101074,1.1199089288711548
1781536313424507,762389082,0.8082811832427979,0.5707763433456421,0.06426211446523666,-0.12948648631572723,-2.448946475982666,8.819354057312012,3.1480605602264404,1.8188793659210205,-0.6576956510543823,0.6541290879249573
1781536313424828,762405749,0.8080918788909912,0.571039080619812,0.06427498161792755,-0.12950335443019867,-2.4365689754486084,8.872154235839844,3.220287322998047,2.7554142475128174,0.44446998834609985,-0.1191374734044075
1781536313454350,762422416,0.8078259825706482,0.571406900882721,0.06417900323867798,-0.12958893179893494,-2.393872022628784,8.905734062194824,3.257357358932495,3.7676477432250977,-0.30176883935928345,-0.0950615331530571
1781536313454749,762439083,0.8076151609420776,0.5717038512229919,0.06387847661972046,-0.12974034249782562,-2.407691717147827,8.912046432495117,3.2061617374420166,3.3694217205047607,-1.7834125757217407,0.36050519347190857
1781536313484307,762455750,0.8074686527252197,0.5719204545021057,0.06358816474676132,-0.12984053790569305,-2.4056944847106934,8.869677543640137,3.138178825378418,2.638876438140869,-1.625125765800476,0.6263201236724854
1781536313484752,762472417,0.8074326515197754,0.5719900131225586,0.06343598663806915,-0.1298326998949051,-2.4215736389160156,8.874505043029785,3.078085422515869,1.2176342010498047,-0.6139748096466064,0.716969907283783
1781536313514252,762489084,0.807443380355835,0.5719918012619019,0.06344617158174515,-0.12975268065929413,-2.42594575881958,8.86772346496582,3.1035609245300293,0.48097455501556396,0.4902719557285309,0.4914245307445526
1781536313544748,762505751,0.8073405623435974,0.572115421295166,0.0636000707745552,-0.12977251410484314,-2.380875587463379,8.843304634094238,3.2449817657470703,1.5181671380996704,1.0536551475524902,-0.6761304140090942
1781536313545289,762522418,0.8071758151054382,0.5723209381103516,0.06360303610563278,-0.1298893392086029,-2.3968236446380615,8.910663604736328,3.2381398677825928,2.3946211338043213,-0.06524195522069931,-0.6405928134918213
1781536313577200,762539085,0.807051420211792,0.5724883675575256,0.06346899271011353,-0.12999048829078674,-2.407179355621338,8.919184684753418,3.219275951385498,2.1406006813049316,-0.8152394890785217,0.004731946624815464
1781536313577575,762555752,0.8070206642150879,0.5725443363189697,0.06333959102630615,-0.12999700009822845,-2.425903558731079,8.889740943908691,3.1861929893493652,1.108690619468689,-0.5572939515113831,0.5462100505828857
1781536313607139,762572419,0.8070538640022278,0.572525680065155,0.06335250288248062,-0.12986665964126587,-2.434293031692505,8.888072967529297,3.174381732940674,0.2568633556365967,0.6768603920936584,0.7701547145843506
1781536313607659,762589086,0.8070999979972839,0.5724974870681763,0.06343676894903183,-0.12966318428516388,-2.41255521774292,8.878449440002441,3.2182202339172363,0.05675773695111275,1.346562147140503,0.9026044011116028
1781536313637071,762605753,0.8071098923683167,0.5725069642066956,0.06352454423904419,-0.12951715290546417,-2.366607427597046,8.873066902160645,3.2565324306488037,0.43156754970550537,1.1895880699157715,0.5540987253189087
1781536313637485,762622420,0.8070241808891296,0.5726215839385986,0.06360816955566406,-0.12950362265110016,-2.3652901649475098,8.886531829833984,3.3346567153930664,1.4540073871612549,0.7809568643569946,-0.20469669997692108
1781536313666703,762639087,0.8069257140159607,0.5727548599243164,0.06356146931648254,-0.1295507550239563,-2.3839542865753174,8.92802906036377,3.295943021774292,1.7515053749084473,-0.15868349373340607,-0.03196465224027634
1781536313694947,762655754,0.8068580031394958,0.5728493928909302,0.06347675621509552,-0.12959648668766022,-2.3990933895111084,8.912702560424805,3.2086260318756104,1.4500757455825806,-0.4115768373012543,0.13563203811645508
1781536313701957,762672421,0.8067801594734192,0.5729649662971497,0.06345445662736893,-0.1295812427997589,-2.4150660037994385,8.892139434814453,3.1891658306121826,1.5244357585906982,0.19791573286056519,0.22789537906646729
1781536313727274,762689088,0.8067026138305664,0.5730934739112854,0.0634743720293045,-0.12948504090309143,-2.4158525466918945,8.905455589294434,3.1642093658447266,1.5223101377487183,0.762803852558136,0.5167170763015747
1781536313727813,762705755,0.806647777557373,0.5731950998306274,0.06350483000278473,-0.12936192750930786,-2.3867545127868652,8.874855041503906,3.1230554580688477,1.2630711793899536,0.8939793109893799,0.6330627202987671
1781536313757011,762722422,0.8066367506980896,0.5732266902923584,0.06362263113260269,-0.12923277914524078,-2.3805415630340576,8.861339569091797,3.1773931980133057,0.6218571662902832,1.3206100463867188,0.33028215169906616
1781536313757524,762739089,0.8065926432609558,0.5732865929603577,0.06375054270029068,-0.12917912006378174,-2.3709070682525635,8.87312126159668,3.210453510284424,0.9333587884902954,1.119153380393982,-0.14549294114112854
1781536313786639,762755756,0.8065391182899475,0.5733464956283569,0.06378455460071564,-0.12923160195350647,-2.3527958393096924,8.904461860656738,3.2031476497650146,1.1019415855407715,0.18441782891750336,-0.3728696405887604
1781536313786892,762772423,0.8064709901809692,0.5734182000160217,0.063767209649086,-0.12934698164463043,-2.365572452545166,8.902565002441406,3.220118284225464,1.2981348037719727,-0.3314026892185211,-0.5273654460906982
1781536313816832,762789090,0.8063563108444214,0.5735472440719604,0.06373713910579681,-0.12950357794761658,-2.3907032012939453,8.907636642456055,3.185753107070923,1.8300849199295044,-0.49187907576560974,-0.7223933935165405
1781536313817282,762805757,0.8062660694122314,0.5736491084098816,0.06370983272790909,-0.1296284943819046,-2.416625738143921,8.888408660888672,3.153115749359131,1.5668376684188843,-0.38693103194236755,-0.5482270121574402
1781536313846193,762822424,0.8061784505844116,0.5737608671188354,0.06379913538694382,-0.12963420152664185,-2.4727959632873535,8.91264533996582,3.138801336288452,1.455909013748169,0.7376521229743958,-0.34053364396095276
1781536313876740,762839091,0.8061178922653198,0.5738463997840881,0.06391916424036026,-0.12957336008548737,-2.4647984504699707,8.889432907104492,3.189822196960449,1.1468278169631958,1.1348026990890503,-0.07993724197149277
1781536313904625,762855758,0.8060603141784668,0.5739233493804932,0.06395874917507172,-0.129571333527565,-2.434084892272949,8.886499404907227,3.2009975910186768,1.1863739490509033,0.4484463632106781,-0.08936271071434021
1781536313934841,762872425,0.8059433102607727,0.5740789175033569,0.0639682337641716,-0.12960496544837952,-2.39618182182312,8.895668983459473,3.198897123336792,1.8990213871002197,0.23673176765441895,-0.18660132586956024
1781536313935591,762889092,0.8058386445045471,0.5742170214653015,0.0639038160443306,-0.12967625260353088,-2.364135980606079,8.907085418701172,3.1937575340270996,1.8378839492797852,-0.34171178936958313,-0.10041458159685135
1781536313935719,762905759,0.8057262301445007,0.5743563175201416,0.06380348652601242,-0.1298064887523651,-2.3681015968322754,8.908276557922363,3.2015607357025146,1.9324206113815308,-0.7687908411026001,-0.29218968749046326
1781536313964749,762922426,0.8056431412696838,0.574449360370636,0.06369119882583618,-0.12996535003185272,-2.3796916007995605,8.920629501342773,3.1132924556732178,1.5847152471542358,-1.0018150806427002,-0.3980213403701782
1781536313965162,762939093,0.805572509765625,0.5745399594306946,0.06361883878707886,-0.1300380676984787,-2.4323530197143555,8.88629150390625,3.08146071434021,1.4484045505523682,-0.4484271705150604,-0.06893658638000488
1781536313965231,762955760,0.805555522441864,0.5745568871498108,0.06371039897203445,-0.13002385199069977,-2.4357967376708984,8.904541015625,3.0857222080230713,0.6440250277519226,0.714037299156189,-0.21906542778015137
1781536313995329,762972427,0.8055224418640137,0.5746017098426819,0.06380801647901535,-0.12998370826244354,-2.4278411865234375,8.855175971984863,3.177738904953003,0.845443069934845,0.8817490339279175,-0.10157995671033859
1781536314024598,762989094,0.8054301738739014,0.5747057199478149,0.0638251006603241,-0.1300862729549408,-2.4028117656707764,8.916147232055664,3.2311103343963623,1.5413339138031006,-0.04956057667732239,-0.6005793809890747
1781536314028304,763005761,0.8053206205368042,0.5748389363288879,0.06373549997806549,-0.13021962344646454,-2.3935158252716064,8.912897109985352,3.242511510848999,1.8814383745193481,-0.7276439666748047,-0.3523154854774475
1781536314054476,763022428,0.8052266240119934,0.5749465227127075,0.06358189135789871,-0.13040123879909515,-2.3807358741760254,8.91597843170166,3.1899428367614746,1.7575883865356445,-1.3015092611312866,-0.3641229271888733
1781536314054808,763039095,0.8051474690437317,0.575033962726593,0.0634675994515419,-0.13056032359600067,-2.4224047660827637,8.91143798828125,3.152470350265503,1.5432100296020508,-1.019180417060852,-0.3906320631504059
1781536314084214,763055762,0.8051013946533203,0.5750927925109863,0.06350705027580261,-0.13056614995002747,-2.4467883110046387,8.930943489074707,3.085902214050293,1.0498582124710083,0.397579550743103,-0.13295553624629974
1781536314084566,763072429,0.8050484657287598,0.5751701593399048,0.06365247070789337,-0.13048066198825836,-2.4921369552612305,8.909795761108398,3.1454901695251465,1.0438904762268066,1.364945650100708,-0.044489260762929916
1781536314115846,763089096,0.8050204515457153,0.5752112865447998,0.06370046734809875,-0.13044856488704681,-2.4718782901763916,8.874227523803711,3.1507842540740967,0.8562517166137695,0.5705420970916748,0.052064210176467896
1781536314116168,763105763,0.8049852252006531,0.5752512812614441,0.06365812569856644,-0.1305105984210968,-2.4497697353363037,8.870875358581543,3.121635913848877,1.0018855333328247,-0.2992843687534332,-0.1182154044508934
1781536314146047,763122430,0.8049071431159973,0.5753412842750549,0.06356481462717056,-0.13064058125019073,-2.436152935028076,8.893779754638672,3.112140417098999,1.5233536958694458,-0.7869245409965515,-0.3090428113937378
1781536314176088,763139097,0.804800271987915,0.5754787921905518,0.0633372887969017,-0.13080304861068726,-2.413095235824585,8.902174949645996,3.099855661392212,2.0346410274505615,-1.602702021598816,0.037042368203401566
1781536314176582,763155764,0.8046730756759644,0.5756472945213318,0.06300237029790878,-0.1310073435306549,-2.407806873321533,8.90933609008789,3.0411574840545654,2.4017858505249023,-2.325504779815674,0.2256670743227005
1781536314207310,763172431,0.8045071363449097,0.5758687853813171,0.06261259317398071,-0.13123854994773865,-2.442913055419922,8.885082244873047,3.0202157497406006,2.908482551574707,-2.671238660812378,0.2820150852203369
1781536314208409,763189098,0.804362416267395,0.5760578513145447,0.06234214827418327,-0.13142457604408264,-2.516551971435547,8.93777084350586,2.9827322959899902,2.5180552005767822,-1.8706620931625366,0.06466566026210785
1781536314234676,763205765,0.804364800453186,0.5760728716850281,0.062324024736881256,-0.13135282695293427,-2.4690780639648438,8.93789005279541,3.093424081802368,0.6335365176200867,0.32457050681114197,0.5499366521835327
1781536314235167,763222432,0.804466962814331,0.5759390592575073,0.06232466176152229,-0.13131365180015564,-2.4066121578216553,8.938765525817871,3.27193284034729,-0.5872735381126404,0.12257596105337143,0.3222781717777252
1781536314265043,763239099,0.8044632077217102,0.5759467482566833,0.062162525951862335,-0.13137996196746826,-2.4038946628570557,8.916309356689453,3.4234042167663574,0.8085865378379822,-1.0219595432281494,0.34822386503219604
1781536314265395,763255766,0.8041722774505615,0.5763354897499084,0.061975929886102676,-0.13154464960098267,-2.346883535385132,8.958113670349121,3.488917589187622,4.119693756103516,-1.0787044763565063,-0.1955401599407196
1781536314294742,763272433,0.8036625385284424,0.5770342350006104,0.06166704744100571,-0.13174177706241608,-2.3523805141448975,8.957786560058594,3.4644179344177246,6.8272271156311035,-1.5092287063598633,0.043125398457050323
1781536314324673,763289100,0.8030486702919006,0.5778713226318359,0.06129341199994087,-0.131989985704422,-2.3464183807373047,8.961071968078613,3.2858853340148926,8.088717460632324,-1.8993744850158691,-0.018261859193444252
1781536314325048,763305767,0.8025388717651367,0.5786037445068359,0.06099524348974228,-0.1320199817419052,-2.4473254680633545,8.924653053283691,2.999540090560913,6.938399314880371,-0.7540637850761414,0.9363301396369934
1781536314354433,763322434,0.8022302985191345,0.5790455937385559,0.06103159487247467,-0.1319415420293808,-2.432180166244507,8.882719993591309,2.897239923477173,4.18546724319458,1.174848198890686,0.2649697959423065
1781536314354761,763339101,0.8020137548446655,0.5793474316596985,0.06112087145447731,-0.13189195096492767,-2.4446969032287598,8.877114295959473,2.932285785675049,3.0101709365844727,1.186354637145996,-0.0799756571650505
1781536314384580,763355768,0.8018407225608826,0.5795856714248657,0.06121211498975754,-0.13185450434684753,-2.3925259113311768,8.917739868164062,2.972698211669922,2.489612102508545,1.0726789236068726,-0.14133088290691376
1781536314385012,763372435,0.8016787171363831,0.5798099040985107,0.061293669044971466,-0.1318160593509674,-2.376286745071411,8.967374801635742,3.008418560028076,2.3754048347473145,1.0063292980194092,-0.09308934211730957
1781536314413508,763389102,0.801466703414917,0.5801157355308533,0.06134076043963432,-0.13173751533031464,-2.3770904541015625,8.979890823364258,3.000643253326416,3.038825273513794,1.0700793266296387,0.25357213616371155
1781536314414912,763405769,0.8012729287147522,0.5803967714309692,0.0614146813750267,-0.13164356350898743,-2.3909740447998047,8.961429595947266,2.9812872409820557,2.7989237308502197,1.249739646911621,0.2372056096792221
1781536314444288,763422436,0.8011276125907898,0.5805959105491638,0.06136038154363632,-0.13167527318000793,-2.3946871757507324,8.946414947509766,2.9832725524902344,2.32332181930542,-0.052838996052742004,0.06562614440917969
1781536314475309,763439103,0.8010674118995667,0.580673098564148,0.06120353564620018,-0.13177435100078583,-2.412677049636841,8.97484302520752,2.988662004470825,1.4335750341415405,-1.0324095487594604,0.12955544888973236
1781536314475579,763455770,0.8010520339012146,0.5806916356086731,0.061027977615594864,-0.13186772167682648,-2.419912338256836,8.959168434143066,3.0142173767089844,0.945576012134552,-1.184126377105713,0.2516767978668213
1781536314505172,763472437,0.8010308146476746,0.5807292461395264,0.06088871508836746,-0.1318950355052948,-2.4334421157836914,8.947056770324707,3.015429973602295,1.0138723850250244,-0.7016599178314209,0.4732394814491272
1781536314505417,763489104,0.8009898066520691,0.5808005332946777,0.060836631804704666,-0.1318543702363968,-2.351046323776245,8.941675186157227,3.0823309421539307,1.170852541923523,0.08866477012634277,0.49572739005088806
1781536314534540,763505771,0.8009216785430908,0.5809026956558228,0.06074691191315651,-0.1318594217300415,-2.3333709239959717,8.964197158813477,3.1016058921813965,1.5032926797866821,-0.26108306646347046,0.3822375237941742
1781536314534940,763522438,0.8009046316146851,0.5809351205825806,0.06063932180404663,-0.13186872005462646,-2.3610875606536865,8.960193634033203,3.0443177223205566,0.9349340200424194,-0.46028587222099304,0.44694802165031433
1781536314564696,763539105,0.8008888959884644,0.5809731483459473,0.0606239028275013,-0.13180352747440338,-2.3733701705932617,8.96766185760498,3.0718278884887695,0.8458274006843567,0.34894099831581116,0.4921928346157074
1781536314565067,763555772,0.8008777499198914,0.5810062885284424,0.06061912700533867,-0.1317288875579834,-2.385058879852295,8.959673881530762,3.065959930419922,0.7877761721611023,0.43918731808662415,0.5033215284347534
1781536314595049,763572439,0.8008442521095276,0.5810570120811462,0.06062335520982742,-0.13170652091503143,-2.394399404525757,8.94398307800293,3.058220386505127,0.9880034327507019,0.3053225874900818,0.16656579077243805
1781536314625405,763589106,0.8007392287254333,0.5812040567398071,0.060667734593153,-0.13167637586593628,-2.424873113632202,8.9758939743042,3.0695509910583496,1.7650158405303955,0.6750802993774414,0.024415304884314537
1781536314625629,763605773,0.8006572723388672,0.5813316106796265,0.06067006289958954,-0.13161064684391022,-2.4118740558624268,8.96081829071045,3.023589611053467,1.5906318426132202,0.5588627457618713,0.40126776695251465
1781536314654891,763622440,0.8005698919296265,0.5814602375030518,0.06067131832242012,-0.13157323002815247,-2.3747310638427734,8.966748237609863,3.0230672359466553,1.6300371885299683,0.4428243935108185,0.2452608048915863
1781536314655144,763639107,0.8005045652389526,0.5815647840499878,0.060623567551374435,-0.13153065741062164,-2.3564016819000244,8.95856761932373,3.0021588802337646,1.4524575471878052,0.16302481293678284,0.4792647659778595
1781536314686098,763655774,0.8004952669143677,0.5815919637680054,0.060509517788887024,-0.13151958584785461,-2.3546371459960938,8.980710983276367,2.9938392639160156,0.8761207461357117,-0.42035558819770813,0.5893226265907288
1781536314686493,763672441,0.8004798889160156,0.5816234946250916,0.06043491140007973,-0.13150787353515625,-2.3485894203186035,8.942344665527344,2.946632146835327,0.8878129720687866,-0.19535447657108307,0.4307672381401062
1781536314715059,763689108,0.8005104660987854,0.5815896987915039,0.06045336648821831,-0.13146273791790009,-2.3652753829956055,8.95726490020752,2.9769415855407715,0.2471369504928589,0.37298494577407837,0.2567289173603058
1781536314715657,763705775,0.8005473613739014,0.5815373063087463,0.06053374707698822,-0.13143180310726166,-2.3597030639648438,8.926427841186523,3.0521998405456543,0.06916069239377975,0.637877881526947,-0.07115207612514496
1781536314744782,763722442,0.8005431890487671,0.5815320014953613,0.060593411326408386,-0.1314532458782196,-2.3804738521575928,8.97956371307373,3.084221363067627,0.5337238311767578,0.3743744194507599,-0.29440516233444214
1781536314774806,763739109,0.8005183935165405,0.5815470218658447,0.06062455102801323,-0.13152387738227844,-2.3629705905914307,8.962186813354492,3.093441963195801,0.7752387523651123,0.047812506556510925,-0.4613102972507477
1781536314775169,763755776,0.8004749417304993,0.5815911293029785,0.06070416793227196,-0.13155712187290192,-2.3870253562927246,8.984809875488281,3.047635555267334,0.9513260722160339,0.4985063374042511,-0.4544845223426819
1781536314804738,763772443,0.8004177808761597,0.5816615223884583,0.06076879799365997,-0.1315634697675705,-2.3924269676208496,8.960062026977539,3.0250303745269775,1.1537561416625977,0.5528437495231628,-0.24804618954658508
1781536314805677,763789110,0.8003464341163635,0.5817520618438721,0.060783304274082184,-0.13159126043319702,-2.386418581008911,8.958173751831055,3.0064899921417236,1.37568998336792,0.21620318293571472,-0.17015793919563293
1781536314834647,763805777,0.8002941608428955,0.5818181037902832,0.06083771586418152,-0.1315910369157791,-2.411046266555786,8.965063095092773,2.9596264362335205,1.1172387599945068,0.517005205154419,-0.16864043474197388
1781536314835161,763822444,0.8002817034721375,0.5818359851837158,0.06097830459475517,-0.13152241706848145,-2.3980460166931152,8.949185371398926,2.998126268386841,0.5856791734695435,1.205045461654663,-0.12098158150911331
1781536314865241,763839111,0.8002750873565674,0.5818387866020203,0.06109130010008812,-0.1314983069896698,-2.3705172538757324,8.970800399780273,3.0510950088500977,0.5235428214073181,0.8587619066238403,-0.25678014755249023
1781536314866293,763855778,0.80022794008255,0.5818926095962524,0.06114721670746803,-0.13152112066745758,-2.403416872024536,8.956031799316406,3.094947338104248,1.0384221076965332,0.42064374685287476,-0.30196091532707214
1781536314894845,763872445,0.8001641631126404,0.5819644331932068,0.06114065274596214,-0.13159511983394623,-2.3989756107330322,8.97794246673584,3.064987897872925,1.2828055620193481,-0.10428209602832794,-0.3410714864730835
1781536314924625,763889112,0.8001183271408081,0.5820235013961792,0.0611255019903183,-0.1316189020872116,-2.421271324157715,8.960328102111816,3.0268778800964355,1.1287068128585815,0.030383063480257988,-0.019760195165872574
1781536314925226,763905779,0.8000887632369995,0.5820703506469727,0.06116034835577011,-0.13157515227794647,-2.4284627437591553,8.955474853515625,3.003840446472168,0.9230239987373352,0.557812511920929,0.16149447858333588
1781536314954895,763922446,0.8000891804695129,0.58207768201828,0.061214178800582886,-0.13151484727859497,-2.4183313846588135,8.946011543273926,2.9684224128723145,0.5612702369689941,0.6810736656188965,0.1875297725200653
1781536314955315,763939113,0.8001037836074829,0.5820696353912354,0.061277713626623154,-0.13143165409564972,-2.412489652633667,8.968740463256836,2.9615883827209473,0.4021385610103607,0.8055001497268677,0.28087523579597473
1781536314984613,763955780,0.8000988364219666,0.5820887684822083,0.061342641711235046,-0.13134653866291046,-2.3679862022399902,8.955342292785645,2.986642360687256,0.6273574233055115,0.8535304069519043,0.27965226769447327
1781536314985067,763972447,0.8000638484954834,0.5821301937103271,0.0614132396876812,-0.1313437670469284,-2.3595263957977295,8.943754196166992,3.0490469932556152,0.9006001353263855,0.588330090045929,-0.21401971578598022
1781536315014661,763989114,0.7999963760375977,0.5822041034698486,0.06145394593477249,-0.13140778243541718,-2.3831799030303955,8.952131271362305,3.0755321979522705,1.265965223312378,0.19972141087055206,-0.47771528363227844
1781536315015013,764005781,0.79991215467453,0.5822996497154236,0.06149785965681076,-0.13147716224193573,-2.3954765796661377,8.97283935546875,3.028559923171997,1.451478123664856,0.22277286648750305,-0.5263793468475342
1781536315044600,764022448,0.7998414039611816,0.5823757648468018,0.06153396517038345,-0.13155339658260345,-2.4112460613250732,8.963077545166016,3.0162057876586914,1.3011314868927002,0.1291840523481369,-0.5287997722625732
1781536315074673,764039115,0.7997747659683228,0.5824644565582275,0.06154020130634308,-0.13156253099441528,-2.444185495376587,8.965539932250977,2.9743685722351074,1.352613091468811,0.24350635707378387,-0.031106626614928246
1781536315075131,764055782,0.7997522354125977,0.5824930667877197,0.06156473234295845,-0.131561279296875,-2.4419052600860596,8.936741828918457,2.9787511825561523,0.8248505592346191,0.3127118647098541,-0.03247690200805664
1781536315104838,764072449,0.7997531890869141,0.5824921727180481,0.06158068776130676,-0.13155251741409302,-2.409437417984009,8.941158294677734,2.986830472946167,0.5743007063865662,0.25841933488845825,0.05166081339120865
1781536315105265,764089116,0.7997530698776245,0.5824918150901794,0.061577994376420975,-0.13155598938465118,-2.3987159729003906,8.959640502929688,3.0031774044036865,0.6026860475540161,0.10834813117980957,0.058890003710985184
1781536315133670,764105783,0.7997587323188782,0.5824831128120422,0.06158456951379776,-0.1315566897392273,-2.37662935256958,8.944570541381836,3.0147571563720703,0.5250667333602905,0.16076448559761047,0.03856632113456726
1781536315137494,764122450,0.7997356057167053,0.582500159740448,0.06158922240138054,-0.13161976635456085,-2.3756144046783447,8.949979782104492,3.028012990951538,0.8105074763298035,-0.06471048295497894,-0.31216755509376526
1781536315164491,764139117,0.7996723651885986,0.5825782418251038,0.061515748500823975,-0.1316927969455719,-2.369220733642578,8.967726707458496,3.013338088989258,1.3823492527008057,-0.4610413908958435,-0.06445435434579849
1781536315164992,764155784,0.7996472120285034,0.5825896859169006,0.06145933270454407,-0.13182112574577332,-2.3733112812042236,8.955153465270996,2.955037832260132,0.8717089891433716,-0.6652258634567261,-0.43108731508255005
1781536315194368,764172451,0.7996309995651245,0.5826042890548706,0.06157531589269638,-0.1318007856607437,-2.4365334510803223,8.971053123474121,2.9851338863372803,0.6343176960945129,0.8768315315246582,-0.2950710654258728
1781536315224664,764189118,0.7996448278427124,0.5825761556625366,0.06164879351854324,-0.1318063884973526,-2.4611995220184326,8.96143913269043,3.023568868637085,0.32934728264808655,0.48801788687705994,-0.2579326927661896
1781536315225113,764205785,0.7996505498886108,0.582573413848877,0.06163550540804863,-0.13179068267345428,-2.4779791831970215,8.954955101013184,2.998978853225708,0.5709070563316345,0.12300499528646469,0.21016502380371094
1781536315254635,764222452,0.7996419072151184,0.5825940370559692,0.061662156134843826,-0.13173967599868774,-2.4540417194366455,8.9222412109375,2.978309392929077,0.7064623236656189,0.5114600658416748,0.2417454570531845
1781536315254911,764239119,0.7996491193771362,0.5825833678245544,0.06165825575590134,-0.1317441314458847,-2.3982152938842773,8.947073936462402,2.958632230758667,0.5218907594680786,0.08580894023180008,0.06086217612028122
1781536315284780,764255786,0.7996357083320618,0.5825915336608887,0.06164045259356499,-0.13179822266101837,-2.385687828063965,8.940747261047363,2.99017071723938,0.741442859172821,-0.16374197602272034,-0.16734057664871216
1781536315285448,764272453,0.7996089458465576,0.5826199054718018,0.06175890192389488,-0.13177980482578278,-2.395005702972412,8.958203315734863,2.983208179473877,0.7526740431785583,0.9003569483757019,-0.31796887516975403
1781536315314626,764289120,0.799575924873352,0.5826586484909058,0.061896659433841705,-0.13174399733543396,-2.42250919342041,8.981999397277832,3.031268835067749,0.8100976943969727,1.0881491899490356,-0.3012949824333191
1781536315315044,764305787,0.7995644807815552,0.5826784372329712,0.06204576417803764,-0.13165590167045593,-2.4527363777160645,8.946990966796875,2.940641403198242,0.5874336361885071,1.3334547281265259,-0.047882936894893646
1781536315344636,764322454,0.7995396256446838,0.5827096700668335,0.06236071512103081,-0.1315191239118576,-2.4533908367156982,8.9132719039917,2.94385027885437,0.5331475734710693,2.456315279006958,-0.4516415297985077
1781536315374734,764339121,0.7995092868804932,0.582737386226654,0.06265795230865479,-0.13144010305404663,-2.471639394760132,8.934586524963379,2.9514777660369873,0.5767788290977478,2.1271796226501465,-0.7043108344078064
1781536315375034,764355788,0.7994410991668701,0.5828118920326233,0.06288569420576096,-0.13141605257987976,-2.4686083793640137,8.956685066223145,2.968545436859131,1.0717569589614868,1.583409070968628,-0.7416157126426697
1781536315404669,764372455,0.799338698387146,0.582939088344574,0.06313452124595642,-0.13135546445846558,-2.4133472442626953,8.97571849822998,2.9909555912017822,1.4640028476715088,1.9079091548919678,-0.6331459283828735
1781536315405070,764389122,0.7992435693740845,0.583046555519104,0.063388392329216,-0.13133548200130463,-2.3617656230926514,8.973267555236816,3.0182268619537354,1.3401907682418823,1.7521326541900635,-0.8787844777107239
1781536315435049,764405789,0.7991501092910767,0.583147406578064,0.06357678771018982,-0.13136528432369232,-2.3431668281555176,8.98779296875,3.0402684211730957,1.3787893056869507,1.1856310367584229,-0.8919879198074341
1781536315435393,764422456,0.7990727424621582,0.5832318067550659,0.0637734979391098,-0.1313658356666565,-2.3643715381622314,8.929696083068848,3.0203099250793457,1.2037264108657837,1.3276022672653198,-0.757764458656311
1781536315464555,764439123,0.7989595532417297,0.5833614468574524,0.06405159831047058,-0.13134363293647766,-2.424114227294922,8.949515342712402,3.0212295055389404,1.512922763824463,1.9224954843521118,-0.9723860621452332
1781536315464991,764455790,0.7988287806510925,0.5835089087486267,0.06427404284477234,-0.13137507438659668,-2.4660415649414062,8.929130554199219,3.0622565746307373,1.755916953086853,1.425474762916565,-1.0520031452178955
1781536315494704,764472457,0.7987236380577087,0.5836354494094849,0.0643247663974762,-0.13142651319503784,-2.5086746215820312,8.970762252807617,2.985562324523926,1.7031357288360596,0.372479110956192,-0.45855697989463806
1781536315525123,764489124,0.7987176775932312,0.5836445093154907,0.0643080472946167,-0.13143102824687958,-2.5039422512054443,8.993463516235352,2.9913330078125,0.7001678943634033,0.04042323678731918,0.10769498348236084
1781536315525436,764505791,0.7987982630729675,0.5835458040237427,0.0642528161406517,-0.13140690326690674,-2.454179525375366,8.972461700439453,3.0177254676818848,-0.2158382087945938,-0.1920696347951889,0.450162410736084
1781536315554793,764522458,0.798841655254364,0.5834885239601135,0.06421215832233429,-0.13141699135303497,-2.451719045639038,8.9795560836792,3.0433237552642822,0.16377398371696472,-0.1949254423379898,0.18869516253471375
1781536315555362,764539125,0.7988414764404297,0.5835010409355164,0.06410965323448181,-0.13141334056854248,-2.4430296421051025,8.994644165039062,3.059203863143921,0.7719730734825134,-0.3975987136363983,0.5034880638122559
1781536315584787,764555792,0.7988455891609192,0.583511471748352,0.06390783190727234,-0.1314394772052765,-2.4370555877685547,8.978025436401367,3.0441017150878906,0.8466598391532898,-1.0657317638397217,0.7414044737815857
1781536315587057,764572459,0.7988327741622925,0.5835483074188232,0.0637177899479866,-0.1314462274312973,-2.4125993251800537,8.970067977905273,3.030855178833008,1.0415533781051636,-0.8916357159614563,0.7967855334281921
1781536315614296,764589126,0.7988193035125732,0.583589494228363,0.06351052224636078,-0.1314452439546585,-2.3879523277282715,8.976146697998047,3.03714919090271,1.0807021856307983,-0.9507689476013184,0.9096733927726746
1781536315614732,764605793,0.7988345623016357,0.5835927128791809,0.06326240301132202,-0.1314583569765091,-2.3747777938842773,8.97729206085205,3.0092854499816895,0.8008834719657898,-1.2785604000091553,1.0051190853118896
1781536315643522,764622460,0.7988604307174683,0.5835745930671692,0.06309548765420914,-0.13146154582500458,-2.3921494483947754,8.933197975158691,2.973602771759033,0.5629991888999939,-0.8162511587142944,0.7339127063751221
1781536315676134,764639127,0.7988709211349487,0.5835684537887573,0.06305243074893951,-0.13144554197788239,-2.4079675674438477,8.93319034576416,2.9661386013031006,0.5705804824829102,-0.04092909023165703,0.33354777097702026
1781536315676470,764655794,0.798844575881958,0.5835955739021301,0.06316881626844406,-0.1314292848110199,-2.401215076446533,8.954545974731445,2.962597608566284,0.7577325105667114,0.8819796442985535,-0.3237573504447937
1781536315704617,764672461,0.7988195419311523,0.583626925945282,0.0633576363325119,-0.1313522607088089,-2.4392266273498535,8.940752983093262,2.952913284301758,0.6842241287231445,1.5262545347213745,-0.27812835574150085
1781536315705224,764689128,0.7987759113311768,0.5836789608001709,0.06364002078771591,-0.13124993443489075,-2.4237020015716553,8.96027660369873,3.0036611557006836,0.777038037776947,2.169037103652954,-0.5221021175384521
1781536315735247,764705795,0.7986747622489929,0.583804190158844,0.06388551741838455,-0.13118945062160492,-2.4339163303375244,8.984685897827148,2.988144874572754,1.461678385734558,1.8900763988494873,-0.6237461566925049
1781536315735687,764722462,0.7985999584197998,0.5838925242424011,0.06398710608482361,-0.13120107352733612,-2.442481279373169,9.013806343078613,2.9486329555511475,1.31437349319458,0.7655187845230103,-0.43459632992744446
1781536315766922,764739129,0.79854816198349,0.5839385986328125,0.06404299288988113,-0.13128428161144257,-2.4509897232055664,8.949605941772461,2.912015199661255,1.0630038976669312,0.17894312739372253,-0.642039954662323
1781536315767321,764755796,0.7984898686408997,0.5839932560920715,0.06414378434419632,-0.1313467174768448,-2.4586658477783203,8.965691566467285,2.8794302940368652,1.086778998374939,0.5188044309616089,-0.7105987668037415
1781536315796533,764772463,0.7984492182731628,0.5840336680412292,0.06426969170570374,-0.13135211169719696,-2.4829468727111816,8.955492973327637,2.9147450923919678,0.8894074559211731,0.8651136755943298,-0.4882805049419403
1781536315826909,764789130,0.7984199523925781,0.5840705037117004,0.0643930584192276,-0.13130581378936768,-2.4405274391174316,8.96873950958252,2.9700052738189697,0.8041875958442688,1.0509017705917358,-0.18533991277217865
1781536315827146,764805797,0.7984253168106079,0.5840588808059692,0.06460779160261154,-0.13121946156024933,-2.4294943809509277,8.929386138916016,3.0531463623046875,0.29824069142341614,1.653997778892517,-0.32269442081451416
1781536315853367,764822464,0.7984141111373901,0.5840747356414795,0.06485497951507568,-0.13109555840492249,-2.42653489112854,8.94880485534668,3.116103172302246,0.4710879623889923,2.0154311656951904,-0.24976222217082977
1781536315857421,764839131,0.7983623147010803,0.5841447114944458,0.06503359973430634,-0.13101111352443695,-2.4538931846618652,8.957825660705566,3.113332509994507,1.011989712715149,1.547986626625061,-0.2037874311208725
1781536315887036,764855798,0.7983004450798035,0.5842355489730835,0.06511688232421875,-0.1309410184621811,-2.452956199645996,8.969270706176758,3.069762706756592,1.2604072093963623,0.9905133843421936,0.10077955573797226
1781536315887450,764872465,0.7982621192932129,0.5842966437339783,0.06513944268226624,-0.13089081645011902,-2.4573702812194824,8.963269233703613,2.9906067848205566,1.0668392181396484,0.5400630235671997,0.2433270663022995
1781536315916555,764889132,0.798237144947052,0.5843408703804016,0.06519580632448196,-0.13081760704517365,-2.454888105392456,8.987027168273926,2.9163918495178223,0.8805325627326965,0.7967278361320496,0.23807643353939056
1781536315945033,764905799,0.7981801629066467,0.5844234824180603,0.06532077491283417,-0.13073386251926422,-2.465031862258911,8.966516494750977,2.902106761932373,1.1529234647750854,1.2653504610061646,0.008983653970062733
1781536315945451,764922466,0.7981252074241638,0.5845115780830383,0.06552393734455109,-0.1305745244026184,-2.4734456539154053,8.973480224609375,2.866541624069214,1.0705660581588745,2.0015621185302734,0.11370118707418442
1781536315976885,764939133,0.7980961799621582,0.5845531225204468,0.06574984639883041,-0.13045237958431244,-2.448423385620117,8.934532165527344,2.8826160430908203,0.7074291110038757,1.9230846166610718,-0.179404154419899
1781536315977224,764955800,0.7980464696884155,0.5846094489097595,0.06593043357133865,-0.13041286170482635,-2.4495770931243896,8.933923721313477,2.9141411781311035,0.9488288760185242,1.365329623222351,-0.46239879727363586
1781536316007115,764972467,0.7980222105979919,0.5846244692802429,0.06604652106761932,-0.13043458759784698,-2.4648826122283936,8.950003623962402,2.8963708877563477,0.7063790559768677,0.7165473103523254,-0.5351261496543884
1781536316007570,764989134,0.7980294227600098,0.5846027135848999,0.06609909981489182,-0.13046139478683472,-2.4742274284362793,8.973095893859863,2.904648542404175,0.4368950128555298,0.3006610572338104,-0.2959931492805481
1781536316036809,765005801,0.7980459332466125,0.584575891494751,0.06596219539642334,-0.13054968416690826,-2.4652373790740967,8.958629608154297,2.905121088027954,0.5697160959243774,-0.9950790405273438,0.13421055674552917
1781536316037180,765022468,0.7980706095695496,0.5845498442649841,0.06567330658435822,-0.13066048920154572,-2.4750900268554688,8.958383560180664,2.855638265609741,0.688226044178009,-1.9227582216262817,0.6292272210121155
1781536316064326,765039135,0.798130989074707,0.5844747424125671,0.0654517412185669,-0.13073912262916565,-2.5232009887695312,8.924863815307617,2.8284316062927246,0.19982388615608215,-1.4844095706939697,0.5451470613479614
1781536316094410,765055802,0.7982359528541565,0.584354043006897,0.06528139859437943,-0.13072460889816284,-2.5404610633850098,8.968832969665527,2.8676412105560303,-0.31768709421157837,-0.8900926113128662,0.8703835010528564
1781536316094780,765072469,0.7983272671699524,0.5842692255973816,0.06502927839756012,-0.13067016005516052,-2.5113399028778076,8.962496757507324,2.9233593940734863,-0.010610058903694153,-1.1404117345809937,1.422682762145996
1781536316124970,765089136,0.7983838319778442,0.5842469334602356,0.06466931849718094,-0.13060232996940613,-2.463170289993286,8.956048965454102,2.9156746864318848,0.5628262162208557,-1.6067229509353638,1.926382303237915
1781536316125519,765105803,0.7984859943389893,0.5841463208198547,0.06415297091007233,-0.13068370521068573,-2.363605260848999,8.95576286315918,2.9680280685424805,0.15656402707099915,-3.155510187149048,1.7417082786560059
1781536316154795,765122470,0.7985789179801941,0.5840361714363098,0.0635826587677002,-0.13088636100292206,-2.3322203159332275,8.964070320129395,3.025712013244629,0.24336546659469604,-3.942626953125,1.2798091173171997
1781536316155097,765139137,0.7986642122268677,0.5839268565177917,0.06331697106361389,-0.1309831291437149,-2.275055408477783,8.966057777404785,3.088973045349121,-0.0408010333776474,-1.840554118156433,0.631000816822052
1781536316184652,765155804,0.7986934185028076,0.5838730335235596,0.06327641010284424,-0.13106341660022736,-2.2818849086761475,8.999822616577148,3.222484588623047,0.27974191308021545,-0.4632697105407715,-0.20937100052833557
1781536316185044,765172471,0.7986595034599304,0.5838866829872131,0.0632467269897461,-0.13122324645519257,-2.3074703216552734,9.000688552856445,3.2622270584106445,0.9300804138183594,-0.6339271664619446,-0.7182185053825378
1781536316214745,765189138,0.7985786199569702,0.583958089351654,0.06316794455051422,-0.13143618404865265,-2.3374578952789307,8.980249404907227,3.1855177879333496,1.5053157806396484,-1.0431922674179077,-0.8305940628051758
1781536316244555,765205805,0.7985415458679199,0.5839506983757019,0.06291984766721725,-0.131813645362854,-2.3512983322143555,8.9588041305542,3.131510019302368,1.1223102807998657,-2.723193645477295,-1.0492243766784668
1781536316245030,765222472,0.7985392212867737,0.583900511264801,0.06262138485908508,-0.13219036161899567,-2.3983256816864014,8.974675178527832,3.029991388320923,0.7946916222572327,-3.050036907196045,-0.8304404616355896
1781536316274595,765239139,0.7985666990280151,0.5838111639022827,0.062492068856954575,-0.13248050212860107,-2.399271249771118,8.965553283691406,2.9522078037261963,0.26928552985191345,-1.8210501670837402,-1.02350914478302
1781536316275045,765255806,0.7986127734184265,0.5836977362632751,0.06253189593553543,-0.1326841413974762,-2.4397711753845215,8.921605110168457,2.964189052581787,-0.1294337660074234,-0.5760424137115479,-1.2212903499603271
1781536316304364,765272473,0.7986850738525391,0.5835540294647217,0.06264390051364899,-0.13282716274261475,-2.4344193935394287,8.954998970031738,2.947171449661255,-0.49260908365249634,0.024171985685825348,-1.167311668395996
1781536316304804,765289140,0.7987289428710938,0.5834507942199707,0.06288743019104004,-0.1329023241996765,-2.4788637161254883,8.92585563659668,2.9808685779571533,-0.30491921305656433,1.0686194896697998,-1.3307206630706787
1781536316334395,765305807,0.798761248588562,0.5833650827407837,0.0632283091545105,-0.13292178511619568,-2.4471402168273926,8.956685066223145,3.0017430782318115,-0.27577194571495056,1.8471688032150269,-1.418149709701538
1781536316334657,765322474,0.7987907528877258,0.5832850933074951,0.06352652609348297,-0.13295312225818634,-2.441281795501709,8.973118782043457,3.0023648738861084,-0.18790756165981293,1.5721008777618408,-1.3123178482055664
1781536316363625,765339141,0.7988236546516418,0.5831984877586365,0.06377167999744415,-0.13301903009414673,-2.4479734897613525,8.95800495147705,2.991830825805664,-0.17439687252044678,1.1345593929290771,-1.2891385555267334
1781536316394750,765355808,0.7988320589065552,0.5831493735313416,0.0640278309583664,-0.13305985927581787,-2.459848642349243,8.941413879394531,2.9760074615478516,0.10871310532093048,1.3401076793670654,-1.2015047073364258
1781536316395394,765372475,0.7988296151161194,0.583112359046936,0.0643792375922203,-0.1330675631761551,-2.4928770065307617,8.952132225036621,2.9734723567962646,0.11747905611991882,2.0118329524993896,-1.4062012434005737
1781536316424462,765389142,0.7988062500953674,0.5831139087677002,0.06474573910236359,-0.13302376866340637,-2.529040813446045,8.939784049987793,3.003596544265747,0.37629541754722595,2.3455920219421387,-1.185804009437561
1781536316424896,765405809,0.7987744212150574,0.5831297636032104,0.06511173397302628,-0.13296601176261902,-2.53412127494812,8.948545455932617,2.9977152347564697,0.4837086796760559,2.4153926372528076,-1.1081461906433105
1781536316454507,765422476,0.7987138628959656,0.5831884741783142,0.06548649072647095,-0.132889062166214,-2.538949728012085,8.937565803527832,3.0128047466278076,0.8185564279556274,2.5930426120758057,-1.0444539785385132
1781536316454980,765439143,0.7986223101615906,0.5832911729812622,0.06575299799442291,-0.13285641372203827,-2.497854709625244,8.945623397827148,3.075577735900879,1.3028219938278198,1.8742543458938599,-0.8616752624511719
1781536316484350,765455810,0.798555314540863,0.5833596587181091,0.0658884346485138,-0.13289153575897217,-2.486250877380371,8.949456214904785,3.0089900493621826,1.1672284603118896,0.841447651386261,-0.7011733055114746
1781536316484784,765472477,0.7985005378723145,0.5834185481071472,0.06598839163780212,-0.13291312754154205,-2.4862375259399414,8.9312162399292,2.9922807216644287,1.0924136638641357,0.6867340803146362,-0.4776512086391449
1781536316514398,765489144,0.7984570860862732,0.5834664106369019,0.06616216152906418,-0.13287784159183502,-2.4818105697631836,8.951262474060059,2.963341474533081,0.8937296271324158,1.3048646450042725,-0.45627740025520325
1781536316544847,765505811,0.7984345555305481,0.5834910869598389,0.06641487777233124,-0.13277818262577057,-2.490817070007324,8.941676139831543,2.922910213470459,0.5805566310882568,1.9653071165084839,-0.41100695729255676
1781536316545389,765522478,0.7984189391136169,0.5835029482841492,0.06670797616243362,-0.13267304003238678,-2.489633321762085,8.924385070800781,2.929332733154297,0.4437720775604248,2.1944003105163574,-0.542477011680603
1781536316573601,765539145,0.7984277606010437,0.5834712982177734,0.06699050217866898,-0.13261708617210388,-2.4660582542419434,8.944676399230957,2.9138050079345703,0.13868635892868042,1.8876621723175049,-0.7677406668663025
1781536316574958,765555812,0.7984699010848999,0.5833901762962341,0.06718633323907852,-0.13262058794498444,-2.4613687992095947,8.936783790588379,2.9044721126556396,-0.15959271788597107,1.1131086349487305,-0.7387727499008179
1781536316606177,765572479,0.7985426783561707,0.5832487940788269,0.06735406816005707,-0.13271912932395935,-2.4737167358398438,8.925734519958496,2.87593674659729,-0.5450254678726196,0.5087450742721558,-1.14799964427948
1781536316606685,765589146,0.7986347079277039,0.5830762386322021,0.06743751466274261,-0.13288116455078125,-2.4789135456085205,8.943079948425293,2.889422655105591,-0.6870607137680054,-0.24531841278076172,-1.1553376913070679
1781536316636984,765605813,0.7987344264984131,0.582892119884491,0.06737397611141205,-0.13312193751335144,-2.48644757270813,8.957049369812012,2.9394819736480713,-0.6102738380432129,-1.3832651376724243,-0.9972176551818848
1781536316637334,765622480,0.7988463044166565,0.5827017426490784,0.06706330925226212,-0.13344016671180725,-2.465108633041382,8.919893264770508,2.9568357467651367,-0.43204790353775024,-3.0611021518707275,-0.42354443669319153
1781536316666208,765639147,0.7990204095840454,0.5824156999588013,0.06681594252586365,-0.13377010822296143,-2.5008087158203125,8.933760643005371,2.987373113632202,-1.2597861289978027,-2.877189874649048,-0.7288733720779419
1781536316697316,765655814,0.7991980314254761,0.5821487903594971,0.06675811111927032,-0.13390019536018372,-2.5040977001190186,8.938597679138184,3.107640504837036,-1.4339271783828735,-1.020499587059021,-0.37828680872917175
1781536316698383,765672481,0.7993910312652588,0.5818727016448975,0.0666716992855072,-0.1339905858039856,-2.5162928104400635,8.937790870666504,3.1908013820648193,-1.537299633026123,-1.0334850549697876,-0.03547358512878418
1781536316727001,765689148,0.7996228337287903,0.5815487504005432,0.06650914996862411,-0.13409605622291565,-2.527986526489258,8.920665740966797,3.1835615634918213,-1.8779231309890747,-1.5742205381393433,0.20001599192619324
1781536316727364,765705815,0.7997849583625793,0.5813171863555908,0.06641639024019241,-0.13417832553386688,-2.528463363647461,8.915616035461426,3.2100236415863037,-1.1650831699371338,-0.9807614684104919,0.026707639917731285
1781536316761426,765722482,0.7997962832450867,0.5812945365905762,0.06635633111000061,-0.13423827290534973,-2.567127227783203,8.94182014465332,3.2272229194641113,0.546696662902832,-0.44893938302993774,-0.02430645190179348
1781536316762768,765739149,0.799771249294281,0.5813314914703369,0.06624283641576767,-0.13428319990634918,-2.566526174545288,8.96313762664795,3.1268932819366455,1.0642460584640503,-0.610523521900177,0.26574453711509705
1781536316816835,765755816,0.7997304797172546,0.5813916325569153,0.06620747596025467,-0.13428282737731934,-2.5533952713012695,8.940140724182129,3.068728446960449,1.161881685256958,0.02812274359166622,0.19865207374095917
1781536316846650,765772483,0.7996581792831421,0.5815010666847229,0.06624723970890045,-0.13422080874443054,-2.54195499420166,8.932432174682617,3.0223734378814697,1.4624979496002197,0.7471224665641785,0.2307191789150238
1781536316876953,765789150,0.7996172308921814,0.5815693140029907,0.06630966067314148,-0.13413859903812408,-2.4933016300201416,8.909427642822266,2.970782995223999,1.08060622215271,0.9007666110992432,0.2617041766643524
1781536316877443,765805817,0.7995721101760864,0.5816276669502258,0.06639884412288666,-0.1341102421283722,-2.48525333404541,8.907781600952148,2.965735673904419,1.0425074100494385,0.8250170946121216,-0.14966781437397003
1781536316878969,765822484,0.7995205521583557,0.5816888809204102,0.06650285422801971,-0.13410022854804993,-2.441899061203003,8.90266227722168,3.010098695755005,1.0792871713638306,0.8385533690452576,-0.3144727349281311
1781536316907189,765839151,0.7995083928108215,0.5816912651062012,0.06654171645641327,-0.13414303958415985,-2.455591917037964,8.924561500549316,3.018787384033203,0.6819829940795898,0.19740349054336548,-0.33520621061325073
1781536316908590,765855818,0.7994875311851501,0.5817071795463562,0.06659544259309769,-0.134171724319458,-2.5005135536193848,8.944009780883789,3.0116233825683594,0.7713328003883362,0.35188648104667664,-0.3190573751926422
1781536316909636,765872485,0.7994430065155029,0.5817538499832153,0.06670740991830826,-0.13417866826057434,-2.538558006286621,8.909379005432129,3.018033027648926,0.9709070324897766,0.7981109619140625,-0.44017988443374634
1781536316935816,765889152,0.7994060516357422,0.5817980766296387,0.06676997989416122,-0.13417614996433258,-2.5587363243103027,8.912039756774902,3.0311293601989746,0.9688707590103149,0.5586833953857422,-0.18465474247932434
1781536316936304,765905819,0.7993762493133545,0.5818377137184143,0.06684844940900803,-0.13414312899112701,-2.5560696125030518,8.918996810913086,3.0478949546813965,0.8863593935966492,0.7609469294548035,-0.07560868561267853
1781536316937610,765922486,0.7993363738059998,0.5819008350372314,0.06696606427431107,-0.13404826819896698,-2.5263309478759766,8.926355361938477,3.1107563972473145,0.9919414520263672,1.2497204542160034,0.10931500792503357
1781536316967241,765939153,0.799304187297821,0.5819522738456726,0.06712479144334793,-0.13393756747245789,-2.4774913787841797,8.926589012145996,3.087791919708252,0.8523138761520386,1.52419912815094,0.03347580134868622
1781536317027378,765955820,0.7992762327194214,0.5820021033287048,0.06723803281784058,-0.13383007049560547,-2.4845778942108154,8.922470092773438,3.0602214336395264,0.8706076145172119,1.258537769317627,0.20107892155647278
1781536317083128,765972487,0.7992368936538696,0.5820741653442383,0.06737272441387177,-0.13368505239486694,-2.480140209197998,8.921478271484375,2.997964382171631,1.0019495487213135,1.552443265914917,0.32107439637184143
1781536317106565,765989154,0.799203634262085,0.5821400880813599,0.06754589825868607,-0.13350827991962433,-2.5181312561035156,8.911794662475586,2.9868180751800537,0.893223762512207,1.882386326789856,0.3441770374774933
1781536317108040,766005821,0.7991725206375122,0.5822045207023621,0.06773354858160019,-0.13331930339336395,-2.5203051567077637,8.93264389038086,2.9709527492523193,0.8582496047019958,2.0085031986236572,0.35446056723594666
1781536317108309,766022488,0.7991606593132019,0.582244336605072,0.06798109412193298,-0.13308942317962646,-2.487748861312866,8.909520149230957,2.9567699432373047,0.5714384913444519,2.4698386192321777,0.3457137644290924
1781536317136263,766039155,0.7991707921028137,0.5822415947914124,0.06818892806768417,-0.1329340636730194,-2.4757378101348877,8.919797897338867,2.9849624633789062,0.3207990825176239,1.9040608406066895,0.09545852988958359
1781536317136936,766055822,0.7991501092910767,0.5822672843933105,0.06834091246128082,-0.13286852836608887,-2.46868896484375,8.926318168640137,2.9818997383117676,0.6932205557823181,1.27852201461792,-0.18963003158569336
1781536317138413,766072489,0.7991315126419067,0.5822845101356506,0.06845765560865402,-0.1328442096710205,-2.469557523727417,8.903573989868164,2.9651918411254883,0.689954936504364,0.911120593547821,-0.2770269811153412
1781536317166221,766089156,0.7991502285003662,0.5822478532791138,0.06854606419801712,-0.13284723460674286,-2.490943193435669,8.949719429016113,2.970158576965332,0.28357741236686707,0.5793015956878662,-0.30544421076774597
1781536317167352,766105823,0.7991733551025391,0.5822139978408813,0.06863880157470703,-0.1328086256980896,-2.5494496822357178,8.941716194152832,2.9754295349121094,0.25726035237312317,0.7702826857566833,-0.0887351930141449
1781536317167588,766122490,0.7992158532142639,0.582169771194458,0.06873970478773117,-0.1326945424079895,-2.572892665863037,8.948115348815918,2.9959230422973633,0.0802253782749176,1.0978307723999023,0.3058476448059082
1781536317196113,766139157,0.7992531657218933,0.5821301341056824,0.06887035816907883,-0.13257631659507751,-2.594611167907715,8.913246154785156,3.04412841796875,0.0964958518743515,1.2854758501052856,0.20760376751422882
1781536317196799,766155824,0.7992655634880066,0.5821388959884644,0.06898356229066849,-0.13240331411361694,-2.5681488513946533,8.910649299621582,3.073740243911743,0.45266610383987427,1.464162826538086,0.5790262818336487
1781536317198273,766172491,0.7992563843727112,0.5821706056594849,0.06911710649728775,-0.1322498917579651,-2.4929351806640625,8.92048168182373,3.1258373260498047,0.656709611415863,1.529206395149231,0.381475567817688
1781536317225876,766189158,0.7992036938667297,0.5822499394416809,0.06922011077404022,-0.13216543197631836,-2.468895196914673,8.947604179382324,3.139530897140503,1.1543450355529785,1.1489920616149902,0.1075541228055954
1781536317226494,766205825,0.7991243600845337,0.5823701024055481,0.06923019886016846,-0.132110133767128,-2.4349253177642822,8.950291633605957,3.0841856002807617,1.5833512544631958,0.5721108317375183,0.3143574595451355
1781536317256441,766222492,0.7990198135375977,0.5825201869010925,0.06930578500032425,-0.13204070925712585,-2.426658868789673,8.916948318481445,3.0277645587921143,1.7832521200180054,1.027728796005249,0.12061659246683121
1781536317256919,766239159,0.7989346981048584,0.5826406478881836,0.06950580328702927,-0.131919264793396,-2.480193614959717,8.906726837158203,2.9518868923187256,1.4058170318603516,1.8838269710540771,-0.08905535936355591
1781536317288303,766255826,0.7988919019699097,0.5827013254165649,0.06970853358507156,-0.1318037062883377,-2.5355396270751953,8.91486644744873,2.957448720932007,0.9075155258178711,1.800848126411438,-0.12258238345384598
1781536317288507,766272493,0.7988540530204773,0.5827565789222717,0.06988535076379776,-0.1316950023174286,-2.5746688842773438,8.924099922180176,2.952883243560791,0.8854501843452454,1.6231215000152588,-0.05442698299884796
1781536317315541,766289160,0.7988138794898987,0.5828145742416382,0.07008185237646103,-0.1315777599811554,-2.5650224685668945,8.947931289672852,3.0019679069519043,0.8871405124664307,1.76960027217865,-0.08667337149381638
1781536317315909,766305827,0.7987735271453857,0.5828814506530762,0.07017368078231812,-0.1314765214920044,-2.547135353088379,8.935362815856934,3.0164639949798584,1.0397282838821411,1.1384012699127197,0.24900028109550476
1781536317347716,766322494,0.7987329363822937,0.5829474925994873,0.07019980251789093,-0.13141629099845886,-2.5129201412200928,8.920367240905762,3.0272562503814697,1.1154650449752808,0.6124060750007629,0.28640761971473694
1781536317376904,766339161,0.7986595630645752,0.5830529928207397,0.07025763392448425,-0.1313641220331192,-2.548025608062744,8.918814659118652,3.0101819038391113,1.4391711950302124,0.806332528591156,0.10463427752256393
1781536317377501,766355828,0.798622727394104,0.5831239223480225,0.07031083852052689,-0.1312440037727356,-2.5463478565216064,8.943689346313477,2.955897331237793,1.074138879776001,1.0043699741363525,0.5126830339431763
1781536317406960,766372495,0.798605740070343,0.5831587910652161,0.0704343244433403,-0.13112632930278778,-2.558006525039673,8.927882194519043,2.9546446800231934,0.7345658540725708,1.3382444381713867,0.21798330545425415
1781536317407503,766389162,0.7986057996749878,0.5831810235977173,0.07058556377887726,-0.13094563782215118,-2.546109914779663,8.925942420959473,2.940258741378784,0.5415100455284119,1.7236897945404053,0.46216192841529846
1781536317439149,766405829,0.7986476421356201,0.5831485986709595,0.07080172747373581,-0.13071782886981964,-2.4885008335113525,8.931445121765137,2.9296977519989014,-0.007568553555756807,2.1991512775421143,0.47166427969932556
1781536317439887,766422496,0.7986867427825928,0.5831066966056824,0.07102818787097931,-0.13054387271404266,-2.4493117332458496,8.892324447631836,2.9897544384002686,-0.03205428645014763,2.0328924655914307,0.12741035223007202
1781536317466997,766439163,0.7986757755279541,0.5831087827682495,0.07134484499692917,-0.13042855262756348,-2.4319119453430176,8.916029930114746,3.0137388706207275,0.35835370421409607,2.356963872909546,-0.5799355506896973
1781536317467441,766455830,0.7986094355583191,0.5831741094589233,0.07159444689750671,-0.13040591776371002,-2.4516637325286865,8.952900886535645,3.0604710578918457,1.0336389541625977,1.7016310691833496,-0.8392513990402222
1781536317498688,766472497,0.7985536456108093,0.5832099914550781,0.07163367420434952,-0.13056540489196777,-2.5166940689086914,8.946415901184082,3.0438003540039062,1.1085177659988403,-0.21525554358959198,-1.001091718673706
1781536317525488,766489164,0.7984803318977356,0.583276629447937,0.07163095474243164,-0.13071757555007935,-2.59881591796875,8.954845428466797,3.0334954261779785,1.3816322088241577,-0.37992602586746216,-0.7933149933815002
1781536317528493,766505831,0.7984073758125305,0.5833624601364136,0.0717039704322815,-0.13073992729187012,-2.620846748352051,8.964139938354492,3.003614902496338,1.3548158407211304,0.5739486217498779,-0.3742655813694
1781536317558623,766522498,0.7983430027961731,0.5834585428237915,0.07180920243263245,-0.13064706325531006,-2.6057004928588867,8.91666316986084,3.0196640491485596,1.2904767990112305,1.2177749872207642,0.14199040830135345
1781536317559251,766539165,0.7982758283615112,0.5835588574409485,0.07185374945402145,-0.1305852085351944,-2.5444703102111816,8.936878204345703,3.026238203048706,1.3953734636306763,0.7651090621948242,0.21503780782222748
1781536317587269,766555832,0.7982206344604492,0.5836392045021057,0.07186010479927063,-0.1305602788925171,-2.5131607055664062,8.926920890808105,3.003683090209961,1.2909249067306519,0.3840816617012024,0.16665545105934143
1781536317587823,766572499,0.7981992959976196,0.5836766958236694,0.07180444896221161,-0.13055366277694702,-2.510378837585449,8.938005447387695,3.009321689605713,0.9841999411582947,-0.08498293906450272,0.3243144154548645
1781536317617207,766589166,0.7981880903244019,0.583695113658905,0.07171875238418579,-0.1305871307849884,-2.5198607444763184,8.933377265930176,2.9891786575317383,0.8858343958854675,-0.43263688683509827,0.22427117824554443
1781536317617854,766605833,0.7981534004211426,0.5837433934211731,0.07175447046756744,-0.13056275248527527,-2.560905933380127,8.941816329956055,2.9863786697387695,1.007097840309143,0.5042692422866821,0.0479917973279953
1781536317648361,766622500,0.7980506420135498,0.5838805437088013,0.07184265553951263,-0.13052970170974731,-2.599560260772705,8.935087203979492,3.0107295513153076,1.7165822982788086,0.9401589035987854,-0.13216152787208557
1781536317677582,766639167,0.7979437708854675,0.5840394496917725,0.0718519538640976,-0.1304672509431839,-2.597564220428467,8.960015296936035,3.011850357055664,1.9094586372375488,0.6471112370491028,0.3532823622226715
1781536317678014,766655834,0.7978487610816956,0.5841872096061707,0.07184390723705292,-0.1303911954164505,-2.5796449184417725,8.939204216003418,2.962613105773926,1.8093386888504028,0.5910577774047852,0.502937376499176
1781536317707587,766672501,0.7977715730667114,0.5843091011047363,0.07187958806753159,-0.13029740750789642,-2.544198751449585,8.91266918182373,2.9357481002807617,1.5480635166168213,0.8695319294929504,0.4277384579181671
1781536317707897,766689168,0.7976822257041931,0.584427535533905,0.07195942848920822,-0.13026900589466095,-2.4968953132629395,8.912958145141602,2.9252190589904785,1.5707308053970337,0.8516927361488342,-0.12085352838039398
1781536317737410,766705835,0.7975850701332092,0.5845412015914917,0.07202199101448059,-0.13031964004039764,-2.463744640350342,8.925662994384766,2.9205329418182373,1.6312150955200195,0.4393538236618042,-0.4943378269672394
1781536317737806,766722502,0.7974927425384521,0.5846331715583801,0.07207988947629929,-0.13043953478336334,-2.4703006744384766,8.959223747253418,2.935173988342285,1.5306215286254883,0.11393169313669205,-0.8620338439941406
1781536317766497,766739169,0.7974024415016174,0.584721565246582,0.07211273163557053,-0.13057684898376465,-2.5051729679107666,8.9515380859375,2.942275047302246,1.5344055891036987,-0.09782771021127701,-0.8571930527687073
1781536317767721,766755836,0.7973296046257019,0.5847932696342468,0.07216915488243103,-0.13067014515399933,-2.5542845726013184,8.954535484313965,2.8960790634155273,1.3298882246017456,0.18516702950000763,-0.703433632850647
1781536317798576,766772503,0.7972870469093323,0.5848374366760254,0.0722586065530777,-0.1306825876235962,-2.567797899246216,8.924758911132812,2.9257757663726807,0.9867995977401733,0.6506842374801636,-0.3795289993286133
1781536317827403,766789170,0.7972599864006042,0.5848665237426758,0.07231411337852478,-0.13068631291389465,-2.5957798957824707,8.92741584777832,2.9177322387695312,0.8687379360198975,0.47868213057518005,-0.18863752484321594
1781536317827833,766805837,0.7972279191017151,0.5849013328552246,0.07233428955078125,-0.13071459531784058,-2.5633552074432373,8.922704696655273,2.9809181690216064,0.9639403223991394,0.19358716905117035,-0.18264415860176086
1781536317856019,766822504,0.7971972227096558,0.5849378705024719,0.07232517749071121,-0.13074417412281036,-2.5474789142608643,8.951958656311035,2.9518699645996094,0.9947395920753479,0.02903839573264122,-0.06983302533626556
1781536317856489,766839171,0.7971872687339783,0.5849483609199524,0.07233811914920807,-0.13074982166290283,-2.5335605144500732,8.945836067199707,2.9413340091705322,0.73749840259552,0.21233567595481873,-0.021489053964614868
1781536317885867,766855838,0.7972007393836975,0.5849304795265198,0.07241788506507874,-0.1307048499584198,-2.5320682525634766,8.944964408874512,2.912555456161499,0.4026508629322052,0.7452207207679749,-0.006172660738229752
1781536317886317,766872505,0.7972320318222046,0.584894597530365,0.07252487540245056,-0.13061492145061493,-2.5590572357177734,8.926604270935059,2.9124481678009033,0.18580733239650726,1.0504664182662964,0.13798841834068298
1781536317915807,766889172,0.797290563583374,0.5848273634910583,0.0726889967918396,-0.13046739995479584,-2.5561540126800537,8.931456565856934,2.8919856548309326,-0.17588239908218384,1.553839087486267,0.23285144567489624
1781536317916554,766905839,0.7973449230194092,0.5847616791725159,0.07289141416549683,-0.1303166002035141,-2.57964825630188,8.931334495544434,2.9175045490264893,-0.1867550015449524,1.7800121307373047,0.0936848521232605
1781536317945549,766922506,0.7973920702934265,0.5847017168998718,0.07308099418878555,-0.1301906406879425,-2.573930025100708,8.92853832244873,2.970964193344116,-0.10247641056776047,1.6184985637664795,0.005641197320073843
1781536317976069,766939173,0.7974575161933899,0.584622859954834,0.07320955395698547,-0.1300714910030365,-2.56526255607605,8.94332504272461,2.9469995498657227,-0.22148582339286804,1.2302868366241455,0.22071105241775513
1781536317976625,766955840,0.7975137829780579,0.5845489501953125,0.07331214100122452,-0.13000041246414185,-2.5201127529144287,8.944398880004883,2.959932804107666,-0.10971199721097946,0.9039169549942017,0.0560469850897789
1781536318006757,766972507,0.7975577712059021,0.5844913125038147,0.07338082790374756,-0.1299510896205902,-2.507321834564209,8.926814079284668,2.9660563468933105,0.07018519937992096,0.651068389415741,0.06990345567464828
1781536318007287,766989174,0.7976183891296387,0.5844033360481262,0.07345513254404068,-0.12993262708187103,-2.5205252170562744,8.930572509765625,2.9765703678131104,-0.15233151614665985,0.522915244102478,-0.12267201393842697
1781536318035965,767005841,0.7976660132408142,0.5843391418457031,0.0735512524843216,-0.12987445294857025,-2.5566306114196777,8.958696365356445,2.986469268798828,-0.008426576852798462,0.8303572535514832,0.007792663294821978
