host_t_us,sensor_t_us,qw,qx,qy,qz,ax,ay,az,gx,gy,gz
1785712344962103,670972542,-0.3044918179512024,0.7276607155799866,0.3005695641040802,0.5361462235450745,9.36159896850586,-1.224098801612854,-2.428597927093506,-1.4285868406295776,-3.925530433654785,-0.4723494350910187
1785712344963662,670989209,-0.30440443754196167,0.7274518013000488,0.3002311587333679,0.5366687774658203,9.370555877685547,-1.1912040710449219,-2.3761727809906006,-1.6710236072540283,3.844792604446411,-0.3425186276435852
1785712345014572,671005876,-0.3043639361858368,0.7274278998374939,0.3000566363334656,0.5368216037750244,9.446667671203613,-1.2063376903533936,-2.375631809234619,-0.45741719007492065,1.0667624473571777,0.16633526980876923
1785712345014831,671022543,-0.30470338463783264,0.727385938167572,0.3001177906990051,0.5366514921188354,9.49217414855957,-1.175188422203064,-2.309232711791992,3.016887903213501,-0.19162139296531677,1.02847158908844
1785712345022391,671039210,-0.304989755153656,0.7275296449661255,0.3003743588924408,0.536150336265564,9.487460136413574,-1.1872646808624268,-2.3720412254333496,3.7688381671905518,-3.0510873794555664,0.931399405002594
1785712345053188,671055877,-0.30508723855018616,0.7276353240013123,0.3004405200481415,0.5359144806861877,9.476837158203125,-1.2071456909179688,-2.363440990447998,1.6523457765579224,-1.574451208114624,0.5536249279975891
1785712345054494,671072544,-0.3050330877304077,0.727776288986206,0.30045685172080994,0.5357447266578674,9.486466407775879,-1.2470555305480957,-2.317007064819336,0.49898016452789307,-1.5828135013580322,0.1781299114227295
1785712345082182,671089211,-0.3049996793270111,0.7279252409934998,0.3004664182662964,0.5355560779571533,9.509045600891113,-1.2314157485961914,-2.4349074363708496,0.6005858778953552,-1.6499574184417725,0.34477895498275757
1785712345083724,671105878,-0.30520278215408325,0.7279007434844971,0.30049335956573486,0.5354583859443665,9.460771560668945,-1.196512222290039,-2.465916872024536,2.0221035480499268,-0.10311673581600189,0.5796089768409729
1785712345112113,671122545,-0.3054042458534241,0.7278218865394592,0.30053699016571045,0.5354260802268982,9.419675827026367,-1.1922662258148193,-2.3382060527801514,2.054375648498535,0.3858233094215393,0.24022792279720306
1785712345147968,671139212,-0.3053930401802063,0.7278667092323303,0.3006783723831177,0.5352922677993774,9.404671669006348,-1.2017472982406616,-2.3204007148742676,1.3005553483963013,-1.2218666076660156,-0.562608540058136
1785712345149536,671155879,-0.3053041100502014,0.7279485464096069,0.30077874660491943,0.5351754426956177,9.41672420501709,-1.2020353078842163,-2.385737180709839,0.6484174728393555,-1.348969578742981,-0.60285884141922
1785712345149790,671172546,-0.3052895963191986,0.7279829978942871,0.3007928431034088,0.5351287126541138,9.437847137451172,-1.2011157274246216,-2.395890712738037,0.658585786819458,-0.48781949281692505,-0.1422785371541977
1785712345172310,671189213,-0.3053617477416992,0.7279855608940125,0.3007892668247223,0.5350860953330994,9.4551362991333,-1.2046326398849487,-2.3904919624328613,1.085024356842041,-0.1343386024236679,0.19039839506149292
1785712345202109,671205880,-0.30538585782051086,0.7280329465866089,0.3007698059082031,0.535018801689148,9.447848320007324,-1.1988080739974976,-2.3745484352111816,0.7444908022880554,-0.4885367155075073,0.23769229650497437
1785712345203955,671222547,-0.30533531308174133,0.7281003594398499,0.3007314205169678,0.5349775552749634,9.453547477722168,-1.192335844039917,-2.352897882461548,0.2039475291967392,-0.5466774702072144,0.04434198886156082
1785712345232097,671239214,-0.3053107261657715,0.7281875610351562,0.3007608652114868,0.5348563194274902,9.460984230041504,-1.1840136051177979,-2.4262826442718506,0.708799421787262,-1.1083639860153198,0.009201361797749996
1785712345233988,671255881,-0.3053329885005951,0.7281606793403625,0.3007522225379944,0.5348849892616272,9.46627426147461,-1.180405855178833,-2.347987413406372,0.7316843271255493,0.23874235153198242,-0.17817473411560059
1785712345280840,671272548,-0.3053590953350067,0.7281481027603149,0.30084261298179626,0.53483647108078,9.429133415222168,-1.1825907230377197,-2.4424097537994385,1.2417742013931274,-0.40071067214012146,-0.4676494896411896
1785712345281661,671289215,-0.3052893877029419,0.728204607963562,0.30094027519226074,0.534744381904602,9.402900695800781,-1.206067442893982,-2.483748435974121,0.7362819314002991,-1.0862089395523071,-0.6227471828460693
1785712345292084,671305882,-0.30525660514831543,0.7281681299209595,0.300824373960495,0.5348780751228333,9.444636344909668,-1.2391619682312012,-2.3460655212402344,-0.1347483992576599,0.9107299447059631,-0.0838431641459465
1785712345294308,671322549,-0.30523860454559326,0.7282126545906067,0.3007928729057312,0.5348452925682068,9.443859100341797,-1.2180311679840088,-2.4015769958496094,0.4238709509372711,-0.3669659197330475,0.06478091329336166
1785712345322316,671339216,-0.30528318881988525,0.7282309532165527,0.30081087350845337,0.5347847938537598,9.415144920349121,-1.217607855796814,-2.4818403720855713,1.030033826828003,-0.38390877842903137,0.05089883506298065
1785712345352092,671355883,-0.30527302622795105,0.7282334566116333,0.3008044362068176,0.5347907543182373,9.4141263961792,-1.2188680171966553,-2.407348871231079,0.5636394619941711,-0.05516975373029709,-0.20048338174819946
1785712345356346,671372550,-0.30522796511650085,0.7282201647758484,0.3007660508155823,0.5348562002182007,9.444133758544922,-1.1971607208251953,-2.408046007156372,0.1799996793270111,0.2958715260028839,-0.3262033462524414
1785712345413076,671389217,-0.30516013503074646,0.7281772494316101,0.3007163405418396,0.534981369972229,9.437079429626465,-1.1902782917022705,-2.4147720336914062,-0.03510220721364021,0.6809456944465637,-0.5402231216430664
1785712345413905,671405884,-0.304986834526062,0.7282631397247314,0.3007064759731293,0.5349687933921814,9.460057258605957,-1.2281367778778076,-2.372610092163086,-0.40327194333076477,-0.7844273447990417,-0.5725078582763672
1785712345416005,671422551,-0.30486243963241577,0.7283514142036438,0.30065932869911194,0.5349461436271667,9.476140975952148,-1.2014232873916626,-2.371400833129883,-0.2804846465587616,-0.6647647023200989,-0.17908397316932678
1785712345417130,671439218,-0.30479782819747925,0.728451132774353,0.30060264468193054,0.5348788499832153,9.462764739990234,-1.21424400806427,-2.3959476947784424,0.0540107786655426,-0.7869117856025696,0.20545867085456848
1785712345442129,671455885,-0.30475494265556335,0.7285473942756653,0.30051466822624207,0.5348216891288757,9.434083938598633,-1.2118550539016724,-2.406540870666504,0.029998868703842163,-0.6115800142288208,0.41441982984542847
1785712345444003,671472552,-0.3047158420085907,0.7286219596862793,0.3004218637943268,0.5347945094108582,9.409123420715332,-1.2021492719650269,-2.452816963195801,0.018332289531826973,-0.3645327687263489,0.3433831036090851
1785712345472302,671489219,-0.3046550750732422,0.7286496162414551,0.30036479234695435,0.5348235368728638,9.417648315429688,-1.2194867134094238,-2.401723623275757,0.024043919518589973,-0.029493020847439766,-0.12948499619960785
1785712345502108,671505886,-0.30454787611961365,0.728689432144165,0.3003184497356415,0.5348562002182007,9.434771537780762,-1.22041654586792,-2.3888206481933594,-0.2042996883392334,-0.17434564232826233,-0.33601298928260803
1785712345503956,671522553,-0.3044825494289398,0.728689432144165,0.3002665936946869,0.5349225401878357,9.471470832824707,-1.245256781578064,-2.395103931427002,0.00022411110694520175,0.2386014759540558,-0.30717307329177856
1785712345551463,671539220,-0.30442875623703003,0.7286403179168701,0.30019262433052063,0.5350617170333862,9.486595153808594,-1.2172447443008423,-2.384904384613037,-0.07039650529623032,0.8537929058074951,-0.40776699781417847
1785712345552264,671555887,-0.30443307757377625,0.7285844087600708,0.30010339617729187,0.5351853370666504,9.485641479492188,-1.1793817281723022,-2.388662099838257,0.20842976868152618,0.9529910087585449,-0.0991467610001564
1785712345562115,671572554,-0.3044254779815674,0.7285690903663635,0.3000595271587372,0.5352351665496826,9.457952499389648,-1.170381784439087,-2.364902973175049,0.38262173533439636,0.31444069743156433,-0.13155962526798248
1785712345564023,671589221,-0.3043464422225952,0.7286275029182434,0.3000759184360504,0.5351914763450623,9.441401481628418,-1.1770728826522827,-2.3518283367156982,0.28537026047706604,-0.6993290781974792,-0.34837111830711365
1785712345592151,671605888,-0.3042788505554199,0.7286689877510071,0.3000624477863312,0.5351809859275818,9.424837112426758,-1.185444712638855,-2.381139039993286,0.20023366808891296,-0.3846515119075775,-0.2613903880119324
1785712345594375,671622555,-0.304242879152298,0.7287037372589111,0.30000612139701843,0.5351855158805847,9.441119194030762,-1.1848618984222412,-2.4099559783935547,0.18656933307647705,-0.12935693562030792,0.023646926507353783
1785712345622328,671639222,-0.3042164146900177,0.7287490367889404,0.2999249994754791,0.5351843237876892,9.44182014465332,-1.200353980064392,-2.366072416305542,0.13106659054756165,-0.12560468912124634,0.2173173725605011
1785712345679533,671655889,-0.30417293310165405,0.7288172841072083,0.2998169958591461,0.5351767539978027,9.427322387695312,-1.212638258934021,-2.368540048599243,-0.08771068602800369,-0.2209479659795761,0.3501192331314087
1785712345679989,671672556,-0.30409204959869385,0.7288997769355774,0.2997261583805084,0.5351612567901611,9.431692123413086,-1.236387848854065,-2.387615442276001,-0.22534051537513733,-0.42622092366218567,0.17239266633987427
1785712345683141,671689223,-0.3040625751018524,0.7289188504219055,0.29966458678245544,0.5351864099502563,9.429264068603516,-1.2324111461639404,-2.4247829914093018,0.18831096589565277,0.05600857362151146,-0.0006787364836782217
1785712345683972,671705890,-0.30412527918815613,0.7289016246795654,0.29963433742523193,0.5351912975311279,9.479549407958984,-1.24458909034729,-2.414912700653076,0.8867948651313782,0.21205393970012665,0.14844480156898499
1785712345712100,671722557,-0.3042246699333191,0.7288386821746826,0.299663782119751,0.5352039337158203,9.447125434875488,-1.2208939790725708,-2.403595209121704,1.365496277809143,0.3700971007347107,-0.12563028931617737
1785712345713862,671739224,-0.30428436398506165,0.72878098487854,0.2997257709503174,0.5352138876914978,9.425110816955566,-1.2115833759307861,-2.3955132961273193,1.2823317050933838,0.18728643655776978,-0.418498694896698
1785712345742096,671755891,-0.30430135130882263,0.7287474870681763,0.29973939061164856,0.5352423191070557,9.434256553649902,-1.1874696016311646,-2.3702516555786133,0.8013380765914917,0.2041396051645279,-0.32196441292762756
1785712345743915,671772558,-0.3043384850025177,0.7287192940711975,0.29972872138023376,0.5352654457092285,9.419918060302734,-1.1864639520645142,-2.38962984085083,0.8120569586753845,0.2505626380443573,-0.10416684299707413
1785712345772307,671789225,-0.3043580651283264,0.7287189960479736,0.2996990382671356,0.5352712869644165,9.436098098754883,-1.2004042863845825,-2.4002039432525635,0.6319741606712341,0.06501142680644989,0.01981782540678978
1785712345813341,671805892,-0.30437204241752625,0.7287096381187439,0.299612820148468,0.5353243947029114,9.437782287597656,-1.194678544998169,-2.4053142070770264,0.3178855776786804,0.441697359085083,0.1654004007577896
1785712345813672,671822559,-0.3043341040611267,0.7287229299545288,0.2994972765445709,0.5353926420211792,9.438627243041992,-1.1925002336502075,-2.4142258167266846,-0.12940815091133118,0.3886790871620178,0.13618911802768707
1785712345832098,671839226,-0.3042609989643097,0.7287862300872803,0.29938873648643494,0.5354084968566895,9.45220947265625,-1.210875153541565,-2.417931079864502,-0.2752212584018707,-0.14556977152824402,0.18386715650558472
1785712345833835,671855893,-0.3042045831680298,0.7288167476654053,0.2993466556072235,0.535422682762146,9.465211868286133,-1.2172839641571045,-2.414916515350342,0.12433043867349625,-0.13733528554439545,-0.15161435306072235
1785712345862091,671872560,-0.3041452169418335,0.7288175821304321,0.2992778718471527,0.5354936718940735,9.46859073638916,-1.222787618637085,-2.352440118789673,-0.04382333159446716,0.3066672384738922,-0.20824407041072845
1785712345864068,671889227,-0.3040110170841217,0.728792130947113,0.29914671182632446,0.5356779098510742,9.438283920288086,-1.2210263013839722,-2.3476505279541016,-0.8266242146492004,0.9463187456130981,-0.4622066915035248
1785712345892169,671905894,-0.3038639426231384,0.728744626045227,0.29899024963378906,0.5359131097793579,9.427762031555176,-1.2272120714187622,-2.4165124893188477,-1.042155146598816,1.3097503185272217,-0.5351518392562866
1785712345894174,671922561,-0.3038181960582733,0.7288255095481873,0.2989623248577118,0.5358448028564453,9.42309856414795,-1.159703254699707,-2.514953374862671,0.29459089040756226,-0.7437800168991089,0.09177670627832413
1785712345942630,671939228,-0.3038392961025238,0.7288268208503723,0.2988787293434143,0.5358775854110718,9.51513957977295,-1.2652442455291748,-2.3220672607421875,0.38290342688560486,0.3094205856323242,0.24308371543884277
1785712345952108,671955895,-0.30347058176994324,0.7292602062225342,0.29897215962409973,0.5354446768760681,9.388818740844727,-1.2163673639297485,-2.4187066555023193,-0.8645438551902771,-4.786859512329102,-0.2191934734582901
1785712345954327,671972562,-0.303274542093277,0.7291367650032043,0.2986101806163788,0.5359257459640503,9.423946380615234,-1.209405541419983,-2.452519416809082,-2.39328932762146,3.151111602783203,-0.3514959216117859
1785712345982123,671989229,-0.30321982502937317,0.7290586829185486,0.29837366938591003,0.536194384098053,9.389506340026855,-1.2134171724319458,-2.4471089839935303,-0.880039632320404,1.9476218223571777,0.07594805955886841
1785712345984019,672005896,-0.30349209904670715,0.7289218306541443,0.2982935309410095,0.5362709164619446,9.47463321685791,-1.1762583255767822,-2.3657338619232178,1.8509209156036377,1.5457199811935425,0.7773646712303162
1785712346012096,672022563,-0.303771436214447,0.728999137878418,0.298551470041275,0.5358642339706421,9.451017379760742,-1.1632721424102783,-2.3759851455688477,3.6772475242614746,-2.3565990924835205,0.5568905472755432
1785712346014010,672039230,-0.30385613441467285,0.7291852235794067,0.29870718717575073,0.5354759097099304,9.449451446533203,-1.228778600692749,-2.3798367977142334,2.0586013793945312,-2.850847005844116,0.5372071266174316
1785712346042126,672055897,-0.3038165271282196,0.729377031326294,0.2987639307975769,0.5352054238319397,9.477299690246582,-1.2580325603485107,-2.334243059158325,0.8207781910896301,-2.3308069705963135,0.34077054262161255
1785712346075341,672072564,-0.3038499057292938,0.729531466960907,0.2988186478614807,0.534945547580719,9.490204811096191,-1.2620395421981812,-2.4372806549072266,1.2338213920593262,-1.9850610494613647,0.5210327506065369
1785712346076835,672089231,-0.3040827810764313,0.7294965386390686,0.2987363040447235,0.5349068641662598,9.462021827697754,-1.2411125898361206,-2.4707982540130615,1.6726949214935303,0.5159998536109924,1.0909793376922607
1785712346102129,672105898,-0.3043309450149536,0.7293797731399536,0.2986551821231842,0.534970223903656,9.440534591674805,-1.1997164487838745,-2.353203296661377,1.7157756090164185,1.3586961030960083,0.7594742178916931
1785712346103769,672122565,-0.30439895391464233,0.7294118404388428,0.29871729016304016,0.5348529815673828,9.397939682006836,-1.188586950302124,-2.3249738216400146,1.3986263275146484,-0.7643725872039795,0.06195072457194328
1785712346132104,672139232,-0.3044438362121582,0.7294735908508301,0.298846036195755,0.5346712470054626,9.396475791931152,-1.1667745113372803,-2.39341139793396,1.5967148542404175,-1.38418710231781,-0.16095022857189178
1785712346133987,672155899,-0.3045065701007843,0.7295435667037964,0.2989312708377838,0.5344924330711365,9.391603469848633,-1.1906278133392334,-2.3743536472320557,1.5049700736999512,-1.2723619937896729,0.13323086500167847
1785712346162122,672172566,-0.30456703901290894,0.7296293377876282,0.2989877760410309,0.5343093276023865,9.442042350769043,-1.2142705917358398,-2.36677622795105,1.362179160118103,-1.296540379524231,0.3108292520046234
1785712346163893,672189233,-0.3046019971370697,0.7297557592391968,0.2989826202392578,0.5341196656227112,9.478080749511719,-1.2183424234390259,-2.3882553577423096,0.9361634254455566,-1.4013862609863281,0.623496413230896
1785712346210058,672205900,-0.3045802116394043,0.7299182415008545,0.298941969871521,0.5339325666427612,9.486470222473145,-1.2312703132629395,-2.38039231300354,0.4400966465473175,-1.5636041164398193,0.6623508930206299
1785712346210598,672222567,-0.30458611249923706,0.7301128506660461,0.29894348978996277,0.5336623787879944,9.466639518737793,-1.2473952770233154,-2.4466006755828857,0.838374137878418,-2.130272388458252,0.7923609018325806
1785712346222319,672239234,-0.30463796854019165,0.7302348017692566,0.2988862991333008,0.5334978699684143,9.435434341430664,-1.2321341037750244,-2.3553712368011475,0.7876993417739868,-1.115612268447876,0.8849891424179077
1785712346252111,672255901,-0.3047543466091156,0.7302895188331604,0.29892247915267944,0.5333361625671387,9.422257423400879,-1.2002062797546387,-2.4576337337493896,1.590823769569397,-0.9174467325210571,0.5079061388969421
1785712346254031,672272568,-0.30504438281059265,0.7302953600883484,0.2990168333053589,0.5331092476844788,9.453535079956055,-1.2041364908218384,-2.603609085083008,2.9117608070373535,-0.831132173538208,0.8892410397529602
1785712346282214,672289235,-0.3055735230445862,0.7301769256591797,0.29890820384025574,0.5330296158790588,9.522306442260742,-1.2073942422866821,-2.399700403213501,3.325303077697754,1.2814608812332153,2.220550775527954
1785712346284839,672305902,-0.30602583289146423,0.7304503917694092,0.2989479601383209,0.5323725938796997,9.530892372131348,-1.149868369102478,-2.347346305847168,3.8468291759490967,-3.523244619369507,3.2124407291412354
1785712346340721,672322569,-0.3061678409576416,0.7311634421348572,0.2991701662540436,0.5311859846115112,9.54930591583252,-1.1962170600891113,-2.404714584350586,3.119147300720215,-8.812973976135254,3.178645372390747
1785712346341445,672339236,-0.30626049637794495,0.7319053411483765,0.2992657721042633,0.530055820941925,9.511544227600098,-1.2721134424209595,-2.4499573707580566,2.2319746017456055,-8.470109939575195,3.575169324874878
1785712346345971,672355903,-0.3063679039478302,0.7324460744857788,0.29904496669769287,0.529370903968811,9.496875762939453,-1.3350924253463745,-2.5445311069488525,0.6619026064872742,-4.800191402435303,3.86993145942688
1785712346346566,672372570,-0.30655866861343384,0.7326560020446777,0.29843878746032715,0.529312014579773,9.440326690673828,-1.3243924379348755,-2.567479372024536,-0.9137073755264282,0.5401014089584351,4.115442276000977
1785712346372302,672389237,-0.3067946135997772,0.7327942252159119,0.2976892292499542,0.5294063091278076,9.478687286376953,-1.2660990953445435,-2.5473074913024902,-1.3683841228485107,1.9670233726501465,4.531444072723389
1785712346402134,672405904,-0.3072621822357178,0.7327569127082825,0.2970542907714844,0.5295432806015015,9.533010482788086,-1.2019307613372803,-2.484708309173584,0.4990699291229248,3.053309202194214,4.347826957702637
1785712346403742,672422571,-0.30781811475753784,0.7325592041015625,0.2965150773525238,0.5297961831092834,9.530634880065918,-1.1926472187042236,-2.5431010723114014,1.3962571620941162,4.199285507202148,3.6146116256713867
1785712346432107,672439238,-0.3084794580936432,0.732333242893219,0.29583740234375,0.5301029682159424,9.510415077209473,-1.2320364713668823,-2.5142664909362793,1.3698763847351074,5.082566261291504,4.524682998657227
1785712346433671,672455905,-0.309185653924942,0.7320771813392639,0.2950500249862671,0.530483603477478,9.576337814331055,-1.2447665929794312,-2.502358913421631,1.110547661781311,5.887509346008301,5.022658348083496
1785712346476223,672472572,-0.31021854281425476,0.7315706610679626,0.2942119538784027,0.5310443043708801,9.518383979797363,-1.2478622198104858,-2.512817859649658,2.7354564666748047,8.478222846984863,5.578838348388672
1785712346476493,672489239,-0.3110714852809906,0.7313661575317383,0.2934122383594513,0.5312694907188416,9.616379737854004,-1.279483675956726,-2.5328433513641357,2.0066211223602295,5.241352558135986,6.055298805236816
1785712346492119,672505906,-0.31206005811691284,0.7310149669647217,0.2925437092781067,0.5316520929336548,9.681254386901855,-1.339314341545105,-2.4602081775665283,2.4359288215637207,6.989727020263672,6.263798713684082
1785712346494664,672522573,-0.313315212726593,0.730590283870697,0.29162728786468506,0.5320009589195251,9.62820816040039,-1.3506181240081787,-2.4698729515075684,3.824009418487549,7.727770805358887,7.4045891761779785
1785712346522346,672539240,-0.3149656355381012,0.7297527194023132,0.2904994487762451,0.5327923893928528,9.564539909362793,-1.4037548303604126,-2.524289608001709,5.037810802459717,12.709192276000977,8.13064956665039
1785712346552137,672555907,-0.31683462858200073,0.7284879088401794,0.2890380024909973,0.5342079997062683,9.391724586486816,-1.4200931787490845,-2.4439291954040527,4.591089725494385,18.565078735351562,8.400650978088379
1785712346553723,672572574,-0.3187282979488373,0.7270417213439941,0.2874135375022888,0.5359256863594055,9.421747207641602,-1.4257949590682983,-2.2684359550476074,3.913339376449585,21.148590087890625,8.289020538330078
1785712346606816,672589241,-0.3208940029144287,0.725300669670105,0.28566426038742065,0.5379239320755005,9.529768943786621,-1.436870813369751,-2.112677574157715,4.903774261474609,24.4483585357666,8.717577934265137
1785712346607380,672605908,-0.32291579246520996,0.7239542007446289,0.2838772237300873,0.5394713282585144,9.451776504516602,-1.4640395641326904,-2.0151724815368652,4.062931060791016,20.54171371459961,10.143423080444336
1785712346612124,672622575,-0.3248285949230194,0.7228304147720337,0.28222957253456116,0.5406932830810547,9.463812828063965,-1.5117323398590088,-2.1728851795196533,4.176957607269287,17.572818756103516,10.203263282775879
1785712346613999,672639242,-0.3269522488117218,0.7218364477157593,0.28071868419647217,0.5415270924568176,9.555919647216797,-1.7070597410202026,-2.103325605392456,6.19770622253418,15.264935493469238,11.42558479309082
1785712346642113,672655909,-0.32891806960105896,0.7210801243782043,0.279075562953949,0.5421931743621826,9.532285690307617,-1.797737956047058,-2.0654914379119873,4.710392475128174,13.540510177612305,12.330307960510254
1785712346644307,672672576,-0.3306747078895569,0.720355749130249,0.27718374133110046,0.5430572628974915,9.48009204864502,-1.7852243185043335,-1.848759412765503,2.2943437099456787,14.56444263458252,12.396428108215332
1785712346672313,672689243,-0.3318827450275421,0.7200181484222412,0.2753005623817444,0.5437254905700684,9.476719856262207,-1.8846540451049805,-1.759464144706726,-0.8960355520248413,11.085180282592773,11.487659454345703
1785712346702130,672705910,-0.3329477310180664,0.7198639512062073,0.2733948528766632,0.54423987865448,9.464020729064941,-1.949241042137146,-1.8504972457885742,-1.8171584606170654,9.41843032836914,11.763223648071289
1785712346703986,672722577,-0.33427202701568604,0.7195775508880615,0.2714572250843048,0.5447765588760376,9.406437873840332,-1.9781386852264404,-1.8933179378509521,-0.39278388023376465,10.584092140197754,12.591526985168457
1785712346739845,672739244,-0.33579617738723755,0.719127893447876,0.2694578766822815,0.5454251766204834,9.389662742614746,-1.9759197235107422,-1.8501380681991577,0.5308045744895935,12.264200210571289,13.082731246948242
1785712346740106,672755911,-0.33757972717285156,0.7184430956840515,0.2675226032733917,0.5461788177490234,9.390026092529297,-1.9615161418914795,-1.8285521268844604,2.402865171432495,13.997903823852539,13.060785293579102
1785712346762067,672772578,-0.33928918838500977,0.717867374420166,0.2657833993434906,0.5467252135276794,9.44151496887207,-1.9896451234817505,-1.717968463897705,2.901301383972168,11.973444938659668,12.495803833007812
1785712346763933,672789245,-0.34083446860313416,0.7174406051635742,0.2640555500984192,0.5471615195274353,9.431838035583496,-2.044693946838379,-1.7595194578170776,1.9865036010742188,10.543342590332031,12.351524353027344
1785712346792086,672805912,-0.342459499835968,0.7168604135513306,0.2622053027153015,0.5477966070175171,9.417811393737793,-2.0458829402923584,-1.7899938821792603,1.9176695346832275,12.533632278442383,12.511234283447266
1785712346793987,672822579,-0.34431058168411255,0.7160129547119141,0.2601804733276367,0.5487092733383179,9.420127868652344,-2.052582025527954,-1.634893774986267,2.503715753555298,15.727021217346191,13.087258338928223
1785712346822319,672839246,-0.34628862142562866,0.7150648236274719,0.25817012786865234,0.5496495962142944,9.451937675476074,-2.076263427734375,-1.5841110944747925,3.3721542358398438,16.43478012084961,13.249541282653809
1785712346870211,672855913,-0.3485642075538635,0.7138893604278564,0.25618767738342285,0.5506659150123596,9.494430541992188,-2.1174867153167725,-1.4991453886032104,5.344695091247559,18.129798889160156,13.652444839477539
1785712346871070,672872580,-0.3509281575679779,0.7126157879829407,0.25412610173225403,0.5517683625221252,9.461080551147461,-2.134864330291748,-1.4487384557724,5.56248140335083,19.269506454467773,13.996454238891602
1785712346882123,672889247,-0.35289689898490906,0.7114719152450562,0.2521088421344757,0.552913248538971,9.377182960510254,-2.197171211242676,-1.3954544067382812,3.405989170074463,18.187908172607422,12.4039888381958
1785712346883865,672905914,-0.3548344373703003,0.7104414105415344,0.25028008222579956,0.5538279414176941,9.400298118591309,-2.219376802444458,-1.4750837087631226,4.096635341644287,16.119508743286133,12.118224143981934
1785712346912132,672922581,-0.35692092776298523,0.7091942429542542,0.24821750819683075,0.5550127029418945,9.43496322631836,-2.331918478012085,-1.304275631904602,3.996926784515381,19.090866088867188,12.795442581176758
1785712346914030,672939248,-0.358782023191452,0.7082209587097168,0.24626943469047546,0.5559229850769043,9.376974105834961,-2.3089301586151123,-1.2951241731643677,3.1316115856170654,16.041837692260742,12.517973899841309
1785712346942135,672955915,-0.36096158623695374,0.7067063450813293,0.24407069385051727,0.5574069619178772,9.35218334197998,-2.3932645320892334,-1.2024861574172974,4.088135242462158,22.060619354248047,12.624380111694336
1785712346944734,672972582,-0.36328282952308655,0.7051693797111511,0.24204140901565552,0.558728814125061,9.259822845458984,-2.437802314758301,-1.1734977960586548,5.752542495727539,21.176443099975586,12.708455085754395
1785712347002403,672989249,-0.3656429648399353,0.7037299871444702,0.24029940366744995,0.5597553253173828,9.319722175598145,-2.5071210861206055,-0.9947425723075867,7.292352199554443,18.716533660888672,12.365533828735352
1785712347004612,673005916,-0.36784282326698303,0.7026063203811646,0.23891068994998932,0.5603194832801819,9.272473335266113,-2.505136013031006,-0.9370633363723755,7.847428321838379,14.111266136169434,11.722904205322266
1785712347008189,673022583,-0.369852751493454,0.7018122673034668,0.23768673837184906,0.5605118274688721,9.288646697998047,-2.57315993309021,-0.9037639498710632,7.342112064361572,10.317439079284668,11.676604270935059
1785712347032116,673039250,-0.3717377185821533,0.7011528015136719,0.23646797239780426,0.5606057643890381,9.354349136352539,-2.5511341094970703,-0.81784588098526,6.57987642288208,9.10522747039795,11.639759063720703
1785712347033754,673055917,-0.37351077795028687,0.7005181312561035,0.23551411926746368,0.5606221556663513,9.358845710754395,-2.558917999267578,-0.8941062688827515,7.120636463165283,7.778806209564209,10.170202255249023
1785712347062114,673072584,-0.3751516044139862,0.6998992562294006,0.2345701903104782,0.5606951117515564,9.393624305725098,-2.6342408657073975,-0.8108386397361755,6.391300678253174,7.7494916915893555,9.49314022064209
1785712347063728,673089251,-0.376810222864151,0.6992102265357971,0.23363973200321198,0.5608311295509338,9.45177936553955,-2.7260069847106934,-0.7768259048461914,6.606550216674805,8.317095756530762,9.221147537231445
1785712347092124,673105918,-0.3785514831542969,0.6984162330627441,0.2325516939163208,0.5611001253128052,9.381604194641113,-2.725970983505249,-0.7467597126960754,6.455219745635986,9.901859283447266,9.783875465393066
1785712347093864,673122585,-0.3801622986793518,0.6977230310440063,0.23156523704528809,0.5612814426422119,9.388825416564941,-2.732279062271118,-0.7136968374252319,6.097677707672119,8.619134902954102,9.182474136352539
1785712347122324,673139252,-0.38168948888778687,0.6970096826553345,0.2305888533592224,0.5615332722663879,9.360016822814941,-2.69979190826416,-0.6364011764526367,5.6771416664123535,8.875618934631348,8.594583511352539
1785712347158762,673155919,-0.38303324580192566,0.6963975429534912,0.22972255945205688,0.5617327094078064,9.333383560180664,-2.6630730628967285,-0.5580223202705383,5.039859294891357,7.654109954833984,7.656658172607422
1785712347159021,673172586,-0.38423416018486023,0.6958774328231812,0.22907233238220215,0.5618226528167725,9.353710174560547,-2.7055275440216064,-0.5482708215713501,5.120856761932373,5.9795613288879395,6.5043535232543945
1785712347182195,673189253,-0.3853205144405365,0.6954166293144226,0.2284252792596817,0.5619127750396729,9.37731647491455,-2.8192808628082275,-0.5460479259490967,4.426420211791992,5.562279224395752,6.1394877433776855
1785712347183781,673205920,-0.38652175664901733,0.6949624419212341,0.22786007821559906,0.5618791580200195,9.34078598022461,-2.9008655548095703,-0.5967717170715332,5.47035551071167,4.909142017364502,6.530195713043213
1785712347212108,673222587,-0.38771042227745056,0.6945583820343018,0.22724400460720062,0.561809241771698,9.357491493225098,-2.8533341884613037,-0.4755493104457855,5.137928009033203,4.656435489654541,6.899480819702148
1785712347213962,673239254,-0.38890689611434937,0.6940839886665344,0.22679896652698517,0.5617482662200928,9.313709259033203,-2.862177848815918,-0.5269654989242554,6.007902145385742,4.527820587158203,5.979036808013916
1785712347242110,673255921,-0.39006307721138,0.6934925317764282,0.22634531557559967,0.561860203742981,9.302017211914062,-2.876871109008789,-0.5336269736289978,5.824719429016113,5.765208721160889,5.219428062438965
1785712347243833,673272588,-0.3912349343299866,0.6930326819419861,0.2261311411857605,0.5616990327835083,9.321081161499023,-2.9928925037384033,-0.4902324676513672,6.899441242218018,3.336714506149292,5.074971675872803
1785712347272318,673289255,-0.3925286829471588,0.6925188302993774,0.2259620577096939,0.5614984035491943,9.292153358459473,-3.000441312789917,-0.5243777632713318,7.861058712005615,3.424386978149414,5.353087902069092
1785712347315285,673305922,-0.39388641715049744,0.6918309330940247,0.22566543519496918,0.5615146160125732,9.261642456054688,-2.9153406620025635,-0.4715970754623413,7.802636623382568,5.572576522827148,5.3520636558532715
1785712347315554,673322589,-0.39497900009155273,0.6914111971855164,0.22546525299549103,0.5613443851470947,9.272361755371094,-2.854905128479004,-0.38920432329177856,6.476268768310547,2.9788665771484375,4.790248870849609
1785712347332136,673339256,-0.39582356810569763,0.6910706162452698,0.22528725862503052,0.5612403154373169,9.240403175354004,-2.8804209232330322,-0.30082035064697266,5.068785667419434,2.5417468547821045,3.6708831787109375
1785712347333730,673355923,-0.39671289920806885,0.6908068656921387,0.22521048784255981,0.5609679222106934,9.250813484191895,-3.017977237701416,-0.30931028723716736,5.719964027404785,1.2399431467056274,3.939484119415283
1785712347362128,673372590,-0.39789819717407227,0.6904664039611816,0.22517555952072144,0.5605615973472595,9.283064842224121,-3.115544080734253,-0.3820958435535431,7.707190036773682,1.243067741394043,5.128617286682129
1785712347363688,673389257,-0.39917558431625366,0.6901019215583801,0.22529125213623047,0.5600554347038269,9.283702850341797,-3.0108530521392822,-0.39263615012168884,8.94300365447998,0.5925948619842529,5.004652976989746
1785712347392122,673405924,-0.4005466401576996,0.6895975470542908,0.22554586827754974,0.5595952272415161,9.308181762695312,-2.9859812259674072,-0.4440072476863861,10.234895706176758,1.1125584840774536,4.362734317779541
1785712347394296,673422591,-0.4018554985523224,0.6893180012702942,0.22588564455509186,0.5588635802268982,9.385443687438965,-2.9886107444763184,-0.4565817415714264,10.07093620300293,-1.3697036504745483,4.815720558166504
1785712347422397,673439258,-0.40317538380622864,0.6890833973884583,0.22635918855667114,0.5580100417137146,9.299455642700195,-3.138552665710449,-0.40414315462112427,10.702637672424316,-2.4732532501220703,4.630605220794678
1785712347471925,673455925,-0.40448546409606934,0.6888598203659058,0.22686931490898132,0.5571300387382507,9.282003402709961,-3.1602671146392822,-0.3315364718437195,10.804369926452637,-2.756964921951294,4.510289669036865
1785712347472602,673472592,-0.40572163462638855,0.688612699508667,0.22737349569797516,0.5563308000564575,9.220502853393555,-3.148937702178955,-0.37761178612709045,10.369710922241211,-2.3831474781036377,3.99383544921875
1785712347482149,673489259,-0.4068029224872589,0.6884932518005371,0.22778190672397614,0.5555213689804077,9.250021934509277,-3.115669012069702,-0.4085899591445923,8.930761337280273,-2.8950812816619873,4.0825700759887695
1785712347483706,673505926,-0.40792587399482727,0.6883954405784607,0.22821269929409027,0.554641842842102,9.241508483886719,-3.158388376235962,-0.49680295586586,9.261883735656738,-3.306934118270874,4.365782737731934
1785712347512454,673522593,-0.4090615510940552,0.6883146166801453,0.22878019511699677,0.5536708831787109,9.211318969726562,-3.1181302070617676,-0.4645364582538605,9.939813613891602,-4.167662143707275,4.049888610839844
1785712347514080,673539260,-0.4102189838886261,0.6882175207138062,0.229588121175766,0.5525996685028076,9.176861763000488,-3.1301915645599365,-0.4731951653957367,11.160849571228027,-5.221958637237549,3.251476526260376
1785712347542535,673555927,-0.4114103317260742,0.6880775094032288,0.23056438565254211,0.5514806509017944,9.190007209777832,-3.1141364574432373,-0.47191834449768066,12.158374786376953,-5.706666469573975,2.6504101753234863
1785712347544768,673572594,-0.4123992919921875,0.6880374550819397,0.23136547207832336,0.5504556894302368,9.213715553283691,-2.9640870094299316,-0.4743955731391907,10.104643821716309,-5.465778350830078,2.6041018962860107
1785712347572713,673589261,-0.4130265414714813,0.6881664395332336,0.23199370503425598,0.5495588779449463,9.233439445495605,-2.8907055854797363,-0.3969699740409851,7.0553083419799805,-5.5835442543029785,1.9586485624313354
1785712347626527,673605928,-0.41323718428611755,0.6884101629257202,0.2324923872947693,0.5488840341567993,9.230755805969238,-2.8829634189605713,-0.3951943516731262,3.9161112308502197,-5.264498710632324,0.5505385398864746
1785712347626981,673622595,-0.4130679965019226,0.6888338923454285,0.23287609219551086,0.5483171343803406,9.26691722869873,-2.960824489593506,-0.34616339206695557,0.9997341632843018,-5.713912010192871,-0.3576173186302185
1785712347632465,673639262,-0.41285738348960876,0.6892450451850891,0.23335610330104828,0.5477545261383057,9.262689590454102,-3.0350282192230225,-0.40769335627555847,1.1957993507385254,-5.986584186553955,-1.0019943714141846
1785712347634105,673655929,-0.41272708773612976,0.689626157283783,0.2338593751192093,0.5471580624580383,9.278070449829102,-3.029507637023926,-0.48107799887657166,1.8059453964233398,-5.9717302322387695,-0.762182891368866
1785712347662473,673672596,-0.41248762607574463,0.6900163292884827,0.23437216877937317,0.5466271042823792,9.276420593261719,-3.0135715007781982,-0.5057699084281921,1.1897674798965454,-5.897387981414795,-1.3887847661972046
1785712347664644,673689263,-0.41191884875297546,0.6905806064605713,0.23469243943691254,0.5462059378623962,9.290115356445312,-2.990044593811035,-0.49036118388175964,-1.7666490077972412,-6.015809535980225,-1.7438539266586304
1785712347692498,673705930,-0.4111129939556122,0.6912233233451843,0.2349446713924408,0.545891523361206,9.274789810180664,-3.036698579788208,-0.5124743580818176,-3.5406363010406494,-5.993744373321533,-2.4868268966674805
1785712347693825,673722597,-0.41027477383613586,0.6918416023254395,0.23519636690616608,0.5456303954124451,9.254261016845703,-3.096775770187378,-0.5733274817466736,-3.7132396697998047,-5.699235439300537,-2.796215295791626
1785712347722403,673739264,-0.4094935953617096,0.6923043131828308,0.23550671339035034,0.5454965829849243,9.284193992614746,-3.0638458728790283,-0.5908116102218628,-2.9928441047668457,-4.582586288452148,-3.471750497817993
1785712347786718,673755931,-0.40863680839538574,0.692701518535614,0.23583023250102997,0.5454949140548706,9.286520957946777,-3.049666404724121,-0.639935314655304,-3.3301889896392822,-3.8680684566497803,-4.296108245849609
1785712347787177,673772598,-0.4075903296470642,0.6931188702583313,0.23621852695941925,0.5455797910690308,9.357604026794434,-3.0093698501586914,-0.6857855319976807,-4.186870098114014,-4.0213093757629395,-5.526478290557861
1785712347788487,673789265,-0.4064512252807617,0.6935611963272095,0.2366645336151123,0.5456743240356445,9.376545906066895,-2.993889808654785,-0.7883044481277466,-4.49766731262207,-4.381026744842529,-6.135189533233643
1785712347788734,673805932,-0.40521737933158875,0.6941356658935547,0.23710818588733673,0.5456687808036804,9.370047569274902,-2.9763031005859375,-0.792423665523529,-5.165493488311768,-5.502133846282959,-5.984690189361572
1785712347812179,673822599,-0.4040266275405884,0.6946980357170105,0.23752735555171967,0.5456535816192627,9.306498527526855,-2.9724910259246826,-0.7949325442314148,-5.000996112823486,-5.363378047943115,-5.699070453643799
1785712347814596,673839266,-0.4029386341571808,0.6952076554298401,0.23788240551948547,0.5456544756889343,9.281553268432617,-2.9233341217041016,-0.8006455898284912,-4.629367828369141,-4.74377965927124,-5.138202667236328
1785712347842152,673855933,-0.4016264081001282,0.6958451271057129,0.23814065754413605,0.5456967353820801,9.24862003326416,-2.85699462890625,-0.8002247214317322,-6.487724304199219,-5.123617172241211,-5.4223761558532715
1785712347843986,673872600,-0.4004245400428772,0.6964151263237,0.23871485888957977,0.5456020832061768,9.220151901245117,-2.8660264015197754,-1.082489252090454,-4.36517333984375,-6.216972351074219,-6.252023220062256
1785712347872345,673889267,-0.39881351590156555,0.6973061561584473,0.2394533008337021,0.5453202724456787,9.33540153503418,-2.877678155899048,-0.7839823365211487,-6.284373760223389,-9.441231727600098,-7.530996322631836
1785712347902149,673905934,-0.39734458923339844,0.697932779788971,0.24028313159942627,0.5452257394790649,9.262334823608398,-2.8250482082366943,-1.161501169204712,-4.842146873474121,-7.568568706512451,-8.385358810424805
1785712347903698,673922601,-0.39545467495918274,0.6987457275390625,0.2410995066165924,0.5451982021331787,9.292317390441895,-2.8097984790802,-0.9107842445373535,-7.534505367279053,-8.603913307189941,-9.773761749267578
1785712347947420,673939268,-0.39370042085647583,0.6993258595466614,0.24203558266162872,0.5453091263771057,9.19112777709961,-2.7243833541870117,-1.130702018737793,-6.028886795043945,-7.166860580444336,-10.603011131286621
1785712347948107,673955935,-0.3917856514453888,0.70001220703125,0.2430552840232849,0.5453543663024902,9.2888822555542,-2.7320005893707275,-1.1231729984283447,-6.664954662322998,-8.374079704284668,-11.25223159790039
1785712347962165,673972602,-0.3900589346885681,0.7006150484085083,0.24424034357070923,0.5452882647514343,9.34266471862793,-2.737635612487793,-1.2453113794326782,-4.729068279266357,-8.727763175964355,-11.182308197021484
1785712347964221,673989269,-0.38850829005241394,0.701261043548584,0.2454623132944107,0.5450160503387451,9.386226654052734,-2.679349184036255,-1.2648327350616455,-3.5125155448913574,-9.686153411865234,-10.074865341186523
1785712347992176,674005936,-0.3870047926902771,0.7020385265350342,0.24670369923114777,0.5445241928100586,9.409211158752441,-2.585963010787964,-1.2655717134475708,-3.191690683364868,-11.209842681884766,-9.183223724365234
1785712347993798,674022603,-0.3854627013206482,0.7026694416999817,0.2478744238615036,0.5442725419998169,9.42492961883545,-2.5112667083740234,-1.2673697471618652,-3.6616320610046387,-9.379222869873047,-9.874252319335938
1785712348022359,674039270,-0.38383251428604126,0.7032081484794617,0.24901428818702698,0.5442087054252625,9.457097053527832,-2.5022072792053223,-1.3561538457870483,-4.275927543640137,-8.194148063659668,-10.709739685058594
1785712348052152,674055937,-0.3821052312850952,0.7038044333457947,0.25001418590545654,0.5441948175430298,9.494093894958496,-2.5380795001983643,-1.3664346933364868,-5.508540153503418,-7.964761257171631,-10.429320335388184
1785712348054696,674072604,-0.38034263253211975,0.7044339179992676,0.2508578300476074,0.5442269444465637,9.477970123291016,-2.532409191131592,-1.385076880455017,-6.431020259857178,-7.51642370223999,-9.868837356567383
1785712348104174,674089271,-0.37859678268432617,0.7050145864486694,0.25150051712989807,0.5443955063819885,9.4496488571167,-2.4516794681549072,-1.35587739944458,-7.207854270935059,-6.118929862976074,-9.273444175720215
1785712348104435,674105938,-0.37681183218955994,0.7055923938751221,0.25207772850990295,0.5446184873580933,9.427329063415527,-2.4262139797210693,-1.408618688583374,-7.726524353027344,-5.742024898529053,-9.249238014221191
1785712348112136,674122605,-0.37507107853889465,0.7061472535133362,0.25265562534332275,0.5448328852653503,9.453265190124512,-2.4858100414276123,-1.406279444694519,-7.437215328216553,-5.6224260330200195,-9.104384422302246
1785712348114042,674139272,-0.37346190214157104,0.706754744052887,0.25319886207580566,0.5448985695838928,9.474862098693848,-2.5546557903289795,-1.4032119512557983,-6.805336952209473,-6.223198413848877,-7.968500137329102
1785712348142169,674155939,-0.3719017803668976,0.7073113918304443,0.25364232063293457,0.545037031173706,9.470307350158691,-2.552720785140991,-1.4344310760498047,-6.9361138343811035,-5.337893962860107,-7.575100898742676
1785712348144013,674172606,-0.37043601274490356,0.7077251076698303,0.25407224893569946,0.5452979803085327,9.45468521118164,-2.5062813758850098,-1.4784239530563354,-6.376564979553223,-4.006889820098877,-7.718888282775879
1785712348172412,674189273,-0.3689322769641876,0.7081804871559143,0.2546103298664093,0.5454753041267395,9.439425468444824,-2.3569657802581787,-1.486316204071045,-6.117032527923584,-4.911877632141113,-8.101402282714844
1785712348202234,674205940,-0.36743420362472534,0.7083759903907776,0.25525858998298645,0.545929491519928,9.456669807434082,-2.311811923980713,-1.5087556838989258,-5.499203205108643,-2.858506679534912,-9.774169921875
1785712348203984,674222607,-0.36579424142837524,0.7086280584335327,0.2561453878879547,0.5462881326675415,9.443498611450195,-2.315227508544922,-1.520422339439392,-5.274463653564453,-4.3876752853393555,-11.12721061706543
1785712348264770,674239274,-0.364228218793869,0.7088223695755005,0.2570992112159729,0.5466340184211731,9.479121208190918,-2.296142578125,-1.4866544008255005,-4.495043754577637,-4.27058744430542,-11.24531364440918
1785712348265412,674255941,-0.3626917600631714,0.7089366316795349,0.25789836049079895,0.547130823135376,9.46830940246582,-2.268333673477173,-1.4947433471679688,-4.99583625793457,-2.7950127124786377,-10.90002727508545
1785712348266773,674272608,-0.3610565662384033,0.7091006636619568,0.2586045563220978,0.5476661920547485,9.49184799194336,-2.211853265762329,-1.5689880847930908,-6.017950534820557,-2.7374866008758545,-10.825879096984863
1785712348267010,674289275,-0.35939687490463257,0.7091659903526306,0.2593340277671814,0.5483279228210449,9.50757122039795,-2.250532865524292,-1.5853102207183838,-6.028937816619873,-1.85129976272583,-11.521136283874512
1785712348292122,674305942,-0.3578239381313324,0.7094869613647461,0.2599700093269348,0.5486401915550232,9.585328102111816,-2.2367796897888184,-1.5685536861419678,-5.9680304527282715,-4.132879734039307,-9.418728828430176
1785712348293765,674322609,-0.35635533928871155,0.7097803354263306,0.2602604627609253,0.549078643321991,9.628509521484375,-2.147874355316162,-1.5700470209121704,-6.920348644256592,-2.3766415119171143,-7.699705600738525
1785712348322385,674339276,-0.3549690246582031,0.7099186182022095,0.26041847467422485,0.5497226119041443,9.595653533935547,-2.0083212852478027,-1.6342374086380005,-7.004242897033691,-0.3163681626319885,-7.5236310958862305
1785712348352131,674355943,-0.3535650372505188,0.7100929021835327,0.2606368958950043,0.550298273563385,9.634915351867676,-1.9715279340744019,-1.7201616764068604,-6.829193592071533,-0.9648435115814209,-7.653833389282227
1785712348354389,674372610,-0.35242143273353577,0.7098714113235474,0.26096466183662415,0.5511618256568909,9.601675033569336,-2.000006914138794,-1.7010146379470825,-4.697742462158203,2.1390392780303955,-8.611940383911133
1785712348382156,674389277,-0.35141903162002563,0.7097250819206238,0.26121577620506287,0.5518709421157837,9.600964546203613,-2.0217361450195312,-1.6525671482086182,-4.201891899108887,1.5395346879959106,-7.1932759284973145
1785712348383671,674405944,-0.350643515586853,0.7093942761421204,0.2612658441066742,0.5527650117874146,9.503589630126953,-1.9289331436157227,-1.625588297843933,-3.7460758686065674,4.035429000854492,-6.129696369171143
1785712348432575,674422611,-0.34987184405326843,0.709104061126709,0.26131898164749146,0.5536004900932312,9.44165325164795,-1.8746447563171387,-1.590715765953064,-3.710832357406616,3.594813585281372,-5.915343284606934
1785712348433014,674439278,-0.34908321499824524,0.7090054154396057,0.26149892807006836,0.5541397929191589,9.458377838134766,-1.8258413076400757,-1.653988003730774,-3.2366390228271484,1.0862541198730469,-5.541475772857666
1785712348442143,674455945,-0.3482106626033783,0.7088690400123596,0.2616468667984009,0.5547929406166077,9.519699096679688,-1.8882814645767212,-1.5944337844848633,-3.879734992980957,1.710883617401123,-6.045942306518555
1785712348443977,674472612,-0.34729161858558655,0.7088587284088135,0.2616438865661621,0.555383026599884,9.554389953613281,-1.9643298387527466,-1.5801169872283936,-4.872509479522705,1.2010116577148438,-5.11042594909668
1785712348472649,674489279,-0.3464241921901703,0.7089394330978394,0.2614700198173523,0.5559034943580627,9.563039779663086,-1.9748661518096924,-1.59188711643219,-5.364785194396973,1.0151915550231934,-3.749814987182617
1785712348502481,674505946,-0.34577676653862,0.7090188264846802,0.2612209618091583,0.5563223958015442,9.57404613494873,-1.9673798084259033,-1.6001949310302734,-4.393026828765869,1.1003793478012085,-2.3030686378479004
1785712348505336,674522613,-0.34550437331199646,0.7089046835899353,0.26113662123680115,0.5566765069961548,9.545547485351562,-1.949156641960144,-1.6203134059906006,-1.3604953289031982,1.806713342666626,-1.8656930923461914
1785712348532615,674539280,-0.3455265462398529,0.7085958123207092,0.26121780276298523,0.5570176839828491,9.586874961853027,-1.9731981754302979,-1.5657252073287964,1.1957478523254395,2.62465500831604,-1.8638361692428589
1785712348533815,674555947,-0.3456254303455353,0.7083651423454285,0.2612695097923279,0.5572254061698914,9.58854866027832,-1.9945794343948364,-1.578269124031067,1.5106050968170166,1.88278329372406,-0.968352198600769
1785712348586556,674572614,-0.3456785976886749,0.7082489728927612,0.2611671984195709,0.557388186454773,9.612524032592773,-1.9952976703643799,-1.5298304557800293,0.5059980750083923,1.5094397068023682,-0.08106419444084167
1785712348586840,674589281,-0.3457493782043457,0.7082462906837463,0.2608240842819214,0.5575082302093506,9.600619316101074,-1.983834981918335,-1.5197666883468628,-0.5238822102546692,1.4702906608581543,1.463810682296753
1785712348592147,674605948,-0.34598156809806824,0.7082673907279968,0.2603277862071991,0.5575695037841797,9.596793174743652,-1.9693089723587036,-1.5539404153823853,-0.27604085206985474,1.7471766471862793,3.0111119747161865
1785712348594163,674622615,-0.34647276997566223,0.7081046104431152,0.2598688006401062,0.5576851963996887,9.619059562683105,-2.0064945220947266,-1.5451576709747314,1.467620611190796,3.091722249984741,3.36348557472229
1785712348622388,674639282,-0.34717094898223877,0.7078678011894226,0.25935685634613037,0.5577900409698486,9.65401840209961,-2.055741786956787,-1.569227695465088,2.467867374420166,3.818514585494995,4.3086395263671875
1785712348652142,674655949,-0.34764763712882996,0.7078493237495422,0.2587681710720062,0.5577897429466248,9.676362037658691,-2.0903124809265137,-1.5158716440200806,0.7622275948524475,2.2577531337738037,4.472816467285156
1785712348653855,674672616,-0.3486643433570862,0.7075028419494629,0.2582017779350281,0.5578574538230896,9.636927604675293,-1.96088707447052,-1.7064542770385742,4.141196250915527,4.75433874130249,5.689624786376953
1785712348682193,674689283,-0.3499390482902527,0.7069929838180542,0.25778836011886597,0.5578969120979309,9.631629943847656,-1.9868518114089966,-1.5576890707015991,6.4224700927734375,5.3351335525512695,5.712460517883301
1785712348683790,674705950,-0.3512529730796814,0.7063261866569519,0.2574599087238312,0.5580672025680542,9.608802795410156,-2.0232744216918945,-1.5106054544448853,7.086005687713623,6.438568115234375,4.857047080993652
1785712348744066,674722617,-0.3525518774986267,0.7056140303611755,0.25710827112197876,0.5583112239837646,9.628700256347656,-2.0942420959472656,-1.5097708702087402,6.901223182678223,7.0005106925964355,4.653925895690918
1785712348744753,674739284,-0.35410335659980774,0.7047799825668335,0.2569018006324768,0.5584779381752014,9.634526252746582,-2.0698211193084717,-1.5789179801940918,9.117286682128906,7.188251495361328,4.891112327575684
1785712348746810,674755951,-0.3554813265800476,0.7040463089942932,0.2564868628978729,0.5587185621261597,9.578624725341797,-2.095691680908203,-1.538684368133545,7.09958028793335,7.361534595489502,5.232593536376953
1785712348747936,674772618,-0.35714054107666016,0.7031099796295166,0.25618302822113037,0.5589789152145386,9.528615951538086,-2.0326216220855713,-1.4198302030563354,9.351676940917969,8.460174560546875,5.368899345397949
1785712348772332,674789285,-0.3590039908885956,0.7020590901374817,0.2560731768608093,0.5591566562652588,9.506406784057617,-2.061823844909668,-1.3798837661743164,11.511104583740234,8.38526439666748,5.217124938964844
1785712348802149,674805952,-0.3608003854751587,0.7010325193405151,0.2558933198451996,0.5593703985214233,9.489691734313965,-2.115220069885254,-1.30771803855896,10.794934272766113,8.519987106323242,5.251471519470215
1785712348804005,674822619,-0.36276546120643616,0.6998767852783203,0.25577661395072937,0.5595999360084534,9.577256202697754,-2.183901786804199,-1.307885766029358,12.14238452911377,9.233086585998535,5.329437732696533
1785712348832144,674839286,-0.36473917961120605,0.6988843679428101,0.2557734549045563,0.5595588684082031,9.521790504455566,-2.1610450744628906,-1.3190470933914185,12.689265251159668,7.034975051879883,5.778351783752441
1785712348834247,674855953,-0.36674216389656067,0.6978102922439575,0.25574997067451477,0.5596008896827698,9.531832695007324,-2.2020649909973145,-1.2400426864624023,12.811078071594238,7.8511881828308105,5.63661003112793
1785712348862161,674872620,-0.36879584193229675,0.6966422200202942,0.25576043128967285,0.5597017407417297,9.49185848236084,-2.2066967487335205,-1.2013895511627197,13.317612648010254,8.498885154724121,5.354974746704102
1785712348864452,674889287,-0.37088894844055176,0.6953062415122986,0.25572311878204346,0.5599969625473022,9.546941757202148,-2.261608123779297,-1.1633601188659668,13.405962944030762,10.266047477722168,4.948102951049805
1785712348899204,674905954,-0.3730371296405792,0.6939278841018677,0.2557385563850403,0.5602725148200989,9.551080703735352,-2.286130428314209,-1.0956480503082275,14.017416000366211,10.297694206237793,4.883290767669678
1785712348899458,674922621,-0.3752085566520691,0.6925932168960571,0.25563567876815796,0.5605210661888123,9.572704315185547,-2.2601797580718994,-1.0586841106414795,13.606755256652832,10.344679832458496,5.6831889152526855
1785712348922356,674939288,-0.37736815214157104,0.6912667155265808,0.25543054938316345,0.5608019828796387,9.562105178833008,-2.240999221801758,-1.0387874841690063,13.076952934265137,10.710465431213379,6.055597305297852
1785712348952144,674955955,-0.37951913475990295,0.6898002624511719,0.25507619976997375,0.5613172054290771,9.556434631347656,-2.258047103881836,-0.9880266785621643,12.412064552307129,12.735923767089844,5.877577781677246
1785712348953752,674972622,-0.3816470503807068,0.6884166598320007,0.25480419397354126,0.561696469783783,9.572575569152832,-2.2596933841705322,-0.9378484487533569,12.644702911376953,11.51575756072998,5.898309707641602
1785712348982206,674989289,-0.3838813900947571,0.6868991851806641,0.2544916868209839,0.5621731281280518,9.578740119934082,-2.3051960468292236,-0.934147834777832,13.174298286437988,12.786419868469238,6.011147975921631
1785712348984585,675005956,-0.3861202299594879,0.6853417158126831,0.25405874848365784,0.5627363920211792,9.57211971282959,-2.3061134815216064,-0.8434314727783203,12.683022499084473,13.676502227783203,6.29825496673584
1785712349035461,675022623,-0.3884284496307373,0.6837390065193176,0.25364503264427185,0.5632838606834412,9.535076141357422,-2.3085687160491943,-0.8565089702606201,13.231290817260742,13.847187042236328,6.439112663269043
1785712349035718,675039290,-0.39059367775917053,0.6822120547294617,0.25309985876083374,0.5638829469680786,9.553556442260742,-2.2562477588653564,-0.616060197353363,11.758824348449707,13.898408889770508,6.497776985168457
1785712349042204,675055957,-0.39278659224510193,0.6805902719497681,0.2525923550128937,0.5645464658737183,9.479549407958984,-2.3294613361358643,-0.733151376247406,12.17854118347168,14.515625953674316,6.0904974937438965
1785712349044182,675072624,-0.3948879837989807,0.6790565848350525,0.25204429030418396,0.565172016620636,9.474699974060059,-2.383244276046753,-0.6872875094413757,11.419697761535645,13.946293830871582,6.180550575256348
1785712349072381,675089291,-0.397101491689682,0.6774570941925049,0.25158339738845825,0.5657457709312439,9.495159149169922,-2.3371386528015137,-0.6002660989761353,12.552486419677734,13.917798042297363,6.23579740524292
1785712349102165,675105958,-0.3992694318294525,0.675920844078064,0.2510661780834198,0.5662868022918701,9.49337100982666,-2.355081796646118,-0.46388623118400574,12.007908821105957,13.59356689453125,6.519650936126709
1785712349105248,675122625,-0.401497483253479,0.6742782592773438,0.2504807412624359,0.5669288039207458,9.442955017089844,-2.3668265342712402,-0.39539340138435364,12.13448715209961,14.768180847167969,6.610576152801514
1785712349132152,675139292,-0.40365058183670044,0.6726934909820557,0.24986395239830017,0.5675541758537292,9.42890739440918,-2.3914260864257812,-0.35953542590141296,11.534892082214355,14.423240661621094,6.609192848205566
1785712349133887,675155959,-0.40566083788871765,0.6712374091148376,0.24924752116203308,0.5681157112121582,9.421385765075684,-2.440227746963501,-0.2636944353580475,10.629467964172363,13.37967300415039,6.4481000900268555
1785712349191629,675172626,-0.4075273275375366,0.6699830293655396,0.2485918551683426,0.5685476660728455,9.411370277404785,-2.450972080230713,-0.19293199479579926,9.471973419189453,11.856672286987305,6.774711608886719
1785712349192276,675189293,-0.40938103199005127,0.6686602234840393,0.2478591799736023,0.569092869758606,9.410082817077637,-2.4286887645721436,-0.1342426836490631,9.11009407043457,12.839678764343262,6.64571475982666
1785712349196532,675205960,-0.41130974888801575,0.6672759056091309,0.24729885160923004,0.5695704817771912,9.421762466430664,-2.4403131008148193,-0.1413649022579193,10.419303894042969,12.411742210388184,6.232492446899414
1785712349196986,675222627,-0.4132368266582489,0.6659367680549622,0.24676209688186646,0.5699756741523743,9.44382095336914,-2.4970738887786865,-0.09367011487483978,10.49884033203125,11.833416938781738,6.398961067199707
1785712349222356,675239294,-0.41510680317878723,0.6646493077278137,0.24621912837028503,0.5703542828559875,9.443839073181152,-2.513775110244751,-0.09021078050136566,10.111141204833984,11.429095268249512,6.367522239685059
1785712349252211,675255961,-0.4169110953807831,0.6634352207183838,0.2456163614988327,0.5707114934921265,9.463001251220703,-2.5297369956970215,-0.003247169777750969,9.403192520141602,11.103261947631836,6.568594455718994
1785712349254118,675272628,-0.41870659589767456,0.6622824668884277,0.2450350672006607,0.570985734462738,9.408674240112305,-2.573047637939453,0.05881604179739952,9.410414695739746,10.4078369140625,6.777477741241455
1785712349282189,675289295,-0.4204683005809784,0.6610883474349976,0.2445666640996933,0.5712756514549255,9.396113395690918,-2.653960704803467,0.09480548650026321,9.794426918029785,10.259553909301758,6.016178607940674
1785712349284125,675305962,-0.42215216159820557,0.6598923802375793,0.24395886063575745,0.5716764330863953,9.413335800170898,-2.706972360610962,0.15633642673492432,8.711417198181152,11.042892456054688,6.020416736602783
1785712349312526,675322629,-0.4236987233161926,0.6588084697723389,0.24326518177986145,0.5720775723457336,9.377673149108887,-2.692298412322998,0.1147899255156517,7.425172328948975,10.622625350952148,6.057337760925293
1785712349353430,675339296,-0.4252048432826996,0.657780110836029,0.24249114096164703,0.5724720358848572,9.426283836364746,-2.630406618118286,0.16965560615062714,6.775018692016602,10.540215492248535,6.374627590179443
1785712349354933,675355963,-0.4267740845680237,0.6566866040229797,0.24186646938323975,0.5728238821029663,9.431927680969238,-2.623380661010742,0.2277752310037613,7.9103922843933105,10.273062705993652,5.963415622711182
1785712349355177,675372630,-0.42831656336784363,0.6555589437484741,0.24136151373386383,0.5731770396232605,9.45165729522705,-2.69189453125,0.2698620557785034,8.360342979431152,10.017049789428711,5.257221221923828
1785712349372618,675389297,-0.4297287166118622,0.6543723940849304,0.24058523774147034,0.5738019347190857,9.509634971618652,-2.7030043601989746,0.3360781967639923,6.424444675445557,12.056002616882324,5.068903923034668
1785712349402150,675405964,-0.4308778941631317,0.6532967686653137,0.2394849807024002,0.5746257305145264,9.381230354309082,-2.6754708290100098,0.3243958353996277,3.30724835395813,13.035021781921387,5.08493709564209
1785712349404538,675422631,-0.4318978786468506,0.6523184776306152,0.23823252320289612,0.5754910707473755,9.281041145324707,-2.5702431201934814,0.3578881323337555,1.7698965072631836,13.075593948364258,5.295231342315674
1785712349432469,675439298,-0.4330087900161743,0.6511818170547485,0.23730617761611938,0.5763258934020996,9.24981689453125,-2.6109418869018555,0.3349432945251465,3.9879703521728516,12.745636940002441,4.024250507354736
1785712349434136,675455965,-0.43411532044410706,0.650016725063324,0.23667290806770325,0.5770685076713562,9.267699241638184,-2.835320472717285,0.42871367931365967,5.365127086639404,11.567130088806152,2.922416925430298
1785712349462489,675472632,-0.43505141139030457,0.6491603851318359,0.23599089682102203,0.5776065587997437,9.351449012756348,-2.933547019958496,0.5147636532783508,3.8214993476867676,9.295190811157227,3.5768468379974365
1785712349464084,675489299,-0.43576472997665405,0.6483409404754639,0.2349587082862854,0.5784093737602234,9.336152076721191,-2.828063488006592,0.5937906503677368,0.8970916867256165,11.015341758728027,3.523547410964966
1785712349517797,675505966,-0.43607479333877563,0.6476420164108276,0.23378702998161316,0.5794328451156616,9.153338432312012,-2.654686689376831,0.6178637742996216,-2.1737890243530273,11.285799026489258,2.0753915309906006
1785712349518081,675522633,-0.4362078309059143,0.6469473242759705,0.2330624759197235,0.5803996920585632,9.096528053283691,-2.7211461067199707,0.5672308206558228,-1.1033443212509155,9.393147468566895,-0.44452139735221863
1785712349522728,675539300,-0.43639135360717773,0.6459212303161621,0.23256662487983704,0.5816023349761963,9.27828311920166,-3.053140878677368,0.5912520289421082,0.6501082181930542,11.158170700073242,-2.4981226921081543
1785712349552464,675555967,-0.43672725558280945,0.6448832154273987,0.2321942150592804,0.5826500058174133,9.375395774841309,-3.172996997833252,0.5920090675354004,2.1056015491485596,10.391554832458496,-1.9913368225097656
1785712349554545,675572634,-0.4370594918727875,0.6441423892974854,0.2317367047071457,0.5834018588066101,9.385560035705566,-3.0780556201934814,0.6614560484886169,1.3254382610321045,8.139135360717773,-0.2664361596107483
1785712349582162,675589301,-0.437256395816803,0.64345383644104,0.2309703528881073,0.5843173265457153,9.330292701721191,-2.907155752182007,0.7476093173027039,-0.9267573356628418,9.365202903747559,0.14996880292892456
1785712349583714,675605968,-0.43730831146240234,0.6427428126335144,0.2302425354719162,0.5853475332260132,9.113938331604004,-2.828043222427368,0.7052716016769409,-1.5292963981628418,9.616899490356445,-0.9831183552742004
1785712349612175,675622635,-0.437267929315567,0.64186030626297,0.22994647920131683,0.5864610075950623,9.176681518554688,-2.976698160171509,0.617070198059082,0.1818438321352005,9.231582641601562,-3.7845211029052734
1785712349613792,675639302,-0.43752622604370117,0.6409638524055481,0.23025202751159668,0.5871286392211914,9.428869247436523,-3.1480350494384766,0.5825780630111694,4.67427396774292,5.983672142028809,-3.9172587394714355
1785712349676919,675655969,-0.437777042388916,0.6400296092033386,0.23003949224948883,0.5880436301231384,9.49144458770752,-3.1565771102905273,0.8025780916213989,2.269202470779419,8.77354907989502,-2.468552589416504
1785712349677416,675672636,-0.4378257393836975,0.6392828822135925,0.22961266338825226,0.5889857411384583,9.311153411865234,-2.9598419666290283,0.7779411673545837,-0.09120684862136841,8.459575653076172,-2.12799334526062
1785712349678740,675689303,-0.43746107816696167,0.6383277177810669,0.2288845032453537,0.5905739665031433,9.115163803100586,-2.9351348876953125,0.9019671678543091,-3.520941734313965,12.397744178771973,-4.75104284286499
1785712349702149,675705970,-0.4369664788246155,0.6372851729393005,0.22845371067523956,0.592230498790741,9.240385055541992,-2.901989698410034,0.7247613668441772,-2.7280359268188477,11.953524589538574,-6.926677227020264
1785712349703933,675722637,-0.4365859031677246,0.6359319686889648,0.22837737202644348,0.5939927697181702,9.452445983886719,-3.0541248321533203,0.7450697422027588,-0.018441161140799522,12.796160697937012,-8.821456909179688
1785712349732144,675739304,-0.436612069606781,0.6348298788070679,0.2285996824502945,0.5950655937194824,9.361995697021484,-3.08647084236145,0.7859768271446228,3.3067739009857178,8.498124122619629,-6.0024919509887695
1785712349733778,675755971,-0.4364597201347351,0.6341404318809509,0.22870419919490814,0.5958719253540039,9.247804641723633,-2.800800085067749,0.8986485600471497,1.2238070964813232,5.721512794494629,-4.7712626457214355
1785712349762179,675772638,-0.43584075570106506,0.6339443922042847,0.22907353937625885,0.5963913798332214,9.096323013305664,-2.6833839416503906,0.8546748757362366,-0.7546270489692688,0.9203477501869202,-6.200771808624268
1785712349763781,675789305,-0.43509671092033386,0.6335809230804443,0.22989521920681,0.5970044732093811,9.268930435180664,-2.828345537185669,0.7773505449295044,0.9093215465545654,0.46252065896987915,-9.228975296020508
1785712349792153,675805972,-0.43464457988739014,0.6328887939453125,0.23116528987884521,0.5975772142410278,9.347489356994629,-2.990774631500244,0.8557475805282593,5.067750930786133,0.7557734847068787,-10.382932662963867
1785712349793768,675822639,-0.43451735377311707,0.6318948864936829,0.2324000597000122,0.5982420444488525,9.455948829650879,-2.843526840209961,0.9300055503845215,7.091091156005859,3.0186054706573486,-9.650115013122559
1785712349836490,675839306,-0.434399276971817,0.6312713027000427,0.23386737704277039,0.5984146595001221,9.282567977905273,-2.618269205093384,1.0999274253845215,7.767009258270264,-1.3231014013290405,-8.560357093811035
1785712349852155,675855973,-0.43398579955101013,0.6305304765701294,0.23510904610157013,0.5990087985992432,9.200366973876953,-2.5129051208496094,0.9679068922996521,5.229033470153809,1.1875909566879272,-10.24395751953125
1785712349853771,675872640,-0.4335053861141205,0.6295987367630005,0.2363024204969406,0.599866509437561,9.321493148803711,-2.575334072113037,0.8902707695960999,4.884619235992432,3.15244460105896,-11.40544319152832
1785712349882674,675889307,-0.433016300201416,0.6287788152694702,0.23742954432964325,0.6006341576576233,9.41580867767334,-2.6551387310028076,0.9940477013587952,4.386810779571533,2.484926223754883,-10.7042818069458
1785712349885042,675905974,-0.43247926235198975,0.6283181309700012,0.23850686848163605,0.6010761857032776,9.413960456848145,-2.557797908782959,1.0730078220367432,3.434619665145874,-0.33670467138290405,-9.13119888305664
1785712349912655,675922641,-0.4318560063838959,0.6282262206077576,0.2394711673259735,0.601236879825592,9.41883373260498,-2.3531596660614014,1.1305809020996094,1.9593273401260376,-2.8813529014587402,-7.557938098907471
1785712349914899,675939308,-0.431077241897583,0.6280545592308044,0.24047352373600006,0.6015748977661133,9.291669845581055,-2.3142528533935547,1.0541058778762817,1.3901745080947876,-2.1547584533691406,-9.023100852966309
1785712349943697,675955975,-0.4302801489830017,0.6277167201042175,0.2417072206735611,0.6020038723945618,9.306535720825195,-2.4014296531677246,1.0437908172607422,2.611055374145508,-1.7912119626998901,-10.641785621643066
1785712349944739,675972642,-0.42953410744667053,0.6273921728134155,0.24317704141139984,0.6022828221321106,9.337228775024414,-2.437304735183716,1.0309020280838013,4.0186662673950195,-3.107513189315796,-10.983319282531738
1785712350013465,675989309,-0.4286307394504547,0.6274232268333435,0.24465583264827728,0.6022952198982239,9.335977554321289,-2.3680496215820312,1.097449779510498,2.7730178833007812,-6.019140720367432,-10.292070388793945
1785712350014662,676005976,-0.4274681508541107,0.6277284026145935,0.24614682793617249,0.6021958589553833,9.335301399230957,-2.360685348510742,1.076405644416809,1.0869331359863281,-8.10920238494873,-10.627689361572266
1785712350015041,676022643,-0.426038920879364,0.6281442642211914,0.24769948422908783,0.6021386384963989,9.277661323547363,-2.3320701122283936,1.0272934436798096,-0.2062079906463623,-9.018059730529785,-11.934258460998535
1785712350032620,676039310,-0.42447471618652344,0.6286953091621399,0.24910594522953033,0.6020878553390503,9.294898986816406,-2.3143081665039062,0.9743040204048157,-1.8029688596725464,-9.351587295532227,-11.650738716125488
1785712350034759,676055977,-0.4228723645210266,0.6293399930000305,0.25037071108818054,0.6020174026489258,9.32231330871582,-2.267061710357666,0.9342756867408752,-2.7941553592681885,-9.476334571838379,-10.978456497192383
1785712350062589,676072644,-0.42136454582214355,0.6301470994949341,0.2515632212162018,0.6017329096794128,9.453747749328613,-2.2503786087036133,0.9210319519042969,-2.7856650352478027,-10.702338218688965,-9.372448921203613
1785712350064951,676089311,-0.4199379086494446,0.6310922503471375,0.2527402341365814,0.601246178150177,9.569924354553223,-2.234445333480835,0.9743673205375671,-2.5540106296539307,-11.963789939880371,-8.144920349121094
1785712350092153,676105978,-0.4185400903224945,0.6320119500160217,0.25382936000823975,0.6007960438728333,9.688575744628906,-2.2691876888275146,0.9473828077316284,-2.780311346054077,-11.395634651184082,-7.794960975646973
1785712350093864,676122645,-0.4171810448169708,0.6327602863311768,0.25471559166908264,0.6005784869194031,9.726285934448242,-2.3328962326049805,0.9602281451225281,-3.361924886703491,-9.026700973510742,-7.720734119415283
1785712350122371,676139312,-0.41597601771354675,0.6331402063369751,0.2553119361400604,0.6007605791091919,9.663683891296387,-2.3603997230529785,0.8958746194839478,-3.5324149131774902,-4.664765357971191,-7.615963935852051
1785712350172735,676155979,-0.41492488980293274,0.6331950426101685,0.2557802200317383,0.601230263710022,9.569843292236328,-2.314821481704712,0.911177396774292,-2.967359781265259,-1.4344137907028198,-7.815613746643066
1785712350173203,676172646,-0.4140695035457611,0.6331111192703247,0.25624144077301025,0.6017119288444519,9.467954635620117,-2.252098560333252,0.9148939847946167,-1.7673792839050293,-0.44471344351768494,-7.253838539123535
1785712350182163,676189313,-0.4133264124393463,0.6329266428947449,0.2568018138408661,0.6021777987480164,9.40279769897461,-2.1625165939331055,0.9012725353240967,-0.5553858280181885,-0.18246489763259888,-7.353355407714844
1785712350184445,676205980,-0.41249752044677734,0.6329543590545654,0.25763553380966187,0.6023609638214111,9.384642601013184,-2.17704439163208,0.8827014565467834,0.09788534045219421,-3.2191965579986572,-7.72027063369751
1785712350212231,676222647,-0.4114844501018524,0.633302628993988,0.25867387652397156,0.602242648601532,9.445212364196777,-2.193873882293701,0.8050922155380249,-0.23074489831924438,-6.765443801879883,-7.950709819793701
1785712350214118,676239314,-0.4103566110134125,0.6339786052703857,0.25987207889556885,0.601784884929657,9.53070068359375,-2.176312208175659,0.7493619918823242,-0.39447417855262756,-10.257328033447266,-7.578839302062988
1785712350242501,676255981,-0.4092505872249603,0.6346892714500427,0.2610660195350647,0.6012721061706543,9.597723960876465,-2.14625883102417,0.7466486692428589,-0.31426796317100525,-10.58960247039795,-7.252880573272705
1785712350243775,676272648,-0.40830278396606445,0.6351967453956604,0.2623370885848999,0.6008270978927612,9.697610855102539,-2.1252241134643555,0.7089951038360596,1.1419873237609863,-9.386648178100586,-7.491372108459473
1785712350272412,676289315,-0.4076690673828125,0.6353704929351807,0.2636529505252838,0.6004976034164429,9.76140022277832,-2.087263584136963,0.7053354978561401,3.4296765327453613,-7.062922477722168,-7.315694332122803
1785712350324519,676305982,-0.40725889801979065,0.6353960633277893,0.2649868428707123,0.6001616716384888,9.77405071258545,-2.099774122238159,0.7141836285591125,4.905992031097412,-6.124958515167236,-6.722016334533691
1785712350324979,676322649,-0.4070762097835541,0.6352535486221313,0.2661523222923279,0.5999207496643066,9.696756362915039,-1.9826550483703613,0.6509173512458801,5.502268314361572,-4.131150245666504,-5.619786262512207
1785712350332213,676339316,-0.40695443749427795,0.6349859833717346,0.26706215739250183,0.5998823642730713,9.664498329162598,-1.8837225437164307,0.5465542078018188,4.693367004394531,-1.9029724597930908,-5.047738552093506
1785712350335218,676355983,-0.4067946970462799,0.6347223520278931,0.2678445875644684,0.5999208688735962,9.641388893127441,-1.878278136253357,0.5104624629020691,3.8484175205230713,-1.2970657348632812,-4.856028079986572
1785712350362222,676372650,-0.40658560395240784,0.6345633864402771,0.2686656713485718,0.5998636484146118,9.661916732788086,-1.911512851715088,0.5087324976921082,3.6737513542175293,-2.3449835777282715,-4.7681121826171875
1785712350364085,676389317,-0.4063284993171692,0.6345505118370056,0.2696169316768646,0.5996245741844177,9.683588981628418,-1.9418914318084717,0.5384259819984436,3.9304041862487793,-4.193606853485107,-4.755677700042725
1785712350392191,676405984,-0.40602195262908936,0.6346206665039062,0.27059197425842285,0.5993186235427856,9.706050872802734,-1.9371458292007446,0.535695493221283,3.7060623168945312,-4.986588478088379,-4.722368240356445
1785712350393847,676422651,-0.4056722819805145,0.6347274780273438,0.27144870162010193,0.5990548729896545,9.67364501953125,-1.899927020072937,0.5146605372428894,2.8481132984161377,-4.702914714813232,-4.4337382316589355
1785712350423092,676439318,-0.4054628312587738,0.6346037983894348,0.27197694778442383,0.5990880727767944,9.589369773864746,-1.816439151763916,0.5017110705375671,2.197486400604248,-1.2800971269607544,-3.6809802055358887
1785712350481419,676455985,-0.40527671575546265,0.6345115900039673,0.2724025547504425,0.5991182923316956,9.561807632446289,-1.7545382976531982,0.42902636528015137,1.7955591678619385,-1.0935726165771484,-3.069951295852661
1785712350482052,676472652,-0.4049817621707916,0.6346392035484314,0.2728528380393982,0.5989776849746704,9.598998069763184,-1.78551185131073,0.43276458978652954,1.1286684274673462,-3.0168044567108154,-2.7376902103424072
1785712350486194,676489319,-0.4045690596103668,0.6349895596504211,0.2732694745063782,0.5986952781677246,9.644598007202148,-1.7607989311218262,0.41511088609695435,0.12456097453832626,-4.67936372756958,-2.2635226249694824
1785712350486653,676505986,-0.4041540026664734,0.6353711485862732,0.27368488907814026,0.5983810424804688,9.717720985412598,-1.7244764566421509,0.4584231674671173,0.08018697053194046,-4.948117733001709,-2.1206164360046387
1785712350512181,676522653,-0.4037485420703888,0.6356719136238098,0.27404579520225525,0.5981701016426086,9.712546348571777,-1.703825831413269,0.43963780999183655,-0.07060141861438751,-3.995056629180908,-2.2817330360412598
1785712350513782,676539320,-0.40332362055778503,0.6358413696289062,0.2742120325565338,0.5982003211975098,9.68958568572998,-1.6775786876678467,0.4498264193534851,-1.0465348958969116,-1.8977857828140259,-2.427686929702759
1785712350542174,676555987,-0.4029200077056885,0.6360140442848206,0.2744646966457367,0.5981729030609131,9.6946439743042,-1.644934058189392,0.21995699405670166,-0.49802613258361816,-2.3626303672790527,-2.5515496730804443
1785712350543777,676572654,-0.4024525284767151,0.6362522840499878,0.2747301757335663,0.5981123447418213,9.7754545211792,-1.6425894498825073,0.48926448822021484,-0.8419151306152344,-2.932398557662964,-2.6551921367645264
1785712350572376,676589321,-0.40185922384262085,0.6366217732429504,0.2750975489616394,0.5979492664337158,9.695733070373535,-1.6362059116363525,0.22986562550067902,-1.1427875757217407,-4.440678596496582,-3.086240768432617
1785712350638504,676605988,-0.40124839544296265,0.636779248714447,0.2750755548477173,0.5982019305229187,9.694211959838867,-1.685147762298584,0.4256793260574341,-3.0221059322357178,-0.7061421275138855,-3.0038058757781982
1785712350638763,676622655,-0.4006494879722595,0.6368969678878784,0.27504462003707886,0.5984922051429749,9.6303071975708,-1.6449780464172363,0.3079878091812134,-2.966808557510376,-0.33150514960289,-3.0946030616760254
1785712350639004,676639322,-0.4002070426940918,0.6370254158973694,0.2751753330230713,0.5985912084579468,9.653497695922852,-1.6409825086593628,0.36723044514656067,-1.2843743562698364,-1.362147331237793,-2.610945701599121
1785712350662208,676655989,-0.3998599648475647,0.6372200846672058,0.27561238408088684,0.5984151363372803,9.62353801727295,-1.6549981832504272,0.325832724571228,0.732273519039154,-3.502126932144165,-2.678050994873047
1785712350663753,676672656,-0.3995323181152344,0.6375017166137695,0.2761150896549225,0.5981021523475647,9.651187896728516,-1.6704570055007935,0.3572167456150055,1.1065136194229126,-4.603819370269775,-2.343895435333252
1785712350664720,676689323,-0.39916402101516724,0.6378273367881775,0.2766079604625702,0.5977729558944702,9.668426513671875,-1.6622638702392578,0.35068759322166443,0.7988153100013733,-4.90627908706665,-2.340130090713501
1785712350692164,676705990,-0.3988373577594757,0.6380791068077087,0.27705898880958557,0.5975134372711182,9.661688804626465,-1.683025598526001,0.263507604598999,0.8796619176864624,-4.102643013000488,-2.317014694213867
1785712350693919,676722657,-0.39859911799430847,0.6382367014884949,0.2774658501148224,0.59731525182724,9.679102897644043,-1.662367343902588,0.2314910590648651,1.2275079488754272,-3.1570730209350586,-2.1075668334960938
1785712350722360,676739324,-0.39843565225601196,0.6383530497550964,0.2779179811477661,0.5970897674560547,9.694021224975586,-1.669272780418396,0.25445112586021423,1.9078195095062256,-3.0883536338806152,-2.003053903579712
1785712350771930,676755991,-0.39827483892440796,0.6385040283203125,0.2783380150794983,0.5968397855758667,9.701449394226074,-1.6880179643630981,0.23971356451511383,1.7391217947006226,-3.2456417083740234,-1.7176134586334229
1785712350772580,676772658,-0.3980930745601654,0.6386831402778625,0.27863141894340515,0.5966325998306274,9.70053482055664,-1.7057358026504517,0.21826893091201782,0.9682945013046265,-2.8666117191314697,-1.3113701343536377
1785712350782156,676789325,-0.3979235589504242,0.6388512849807739,0.27883997559547424,0.5964681506156921,9.701342582702637,-1.6960450410842896,0.19132815301418304,0.6220364570617676,-2.3782286643981934,-1.0267618894577026
1785712350783723,676805992,-0.3978150486946106,0.6389928460121155,0.27904006838798523,0.5962952971458435,9.677205085754395,-1.6868571043014526,0.18357548117637634,0.9432452917098999,-2.1658995151519775,-0.7669851779937744
1785712350812144,676822659,-0.3977348804473877,0.639146625995636,0.27927592396736145,0.5960734486579895,9.712084770202637,-1.7139250040054321,0.16002781689167023,1.2772988080978394,-2.4749934673309326,-0.6506522297859192
1785712350842204,676839326,-0.397652268409729,0.6393300890922546,0.27948474884033203,0.595833957195282,9.720526695251465,-1.737663745880127,0.18097282946109772,1.1080502271652222,-2.6050806045532227,-0.43649160861968994
1785712350843776,676855993,-0.3975487947463989,0.6395291686058044,0.27963972091674805,0.5956165194511414,9.733885765075684,-1.7511072158813477,0.17985305190086365,0.7115527987480164,-2.4644153118133545,-0.31552281975746155
1785712350844631,676872660,-0.39748573303222656,0.639678955078125,0.2797609269618988,0.5954409241676331,9.71279525756836,-1.7405455112457275,0.1294231414794922,0.8033742904663086,-1.9086581468582153,-0.2107284814119339
1785712350900396,676889327,-0.3975193202495575,0.6396661400794983,0.2798069715499878,0.5954104661941528,9.634024620056152,-1.7121776342391968,0.14966201782226562,1.0876624584197998,-0.21309764683246613,-0.19384971261024475
1785712350902848,676905994,-0.3975735008716583,0.6395816802978516,0.2798751890659332,0.5954330563545227,9.601118087768555,-1.6958926916122437,0.07773475348949432,1.362666130065918,0.2921704351902008,-0.48997098207473755
1785712350904194,676922661,-0.39754539728164673,0.6395982503890991,0.2798328697681427,0.5954538583755493,9.645893096923828,-1.7459652423858643,0.15805405378341675,0.27643147110939026,0.014977027662098408,-0.1414717435836792
1785712350932148,676939328,-0.3975529968738556,0.639607846736908,0.2798589766025543,0.5954262018203735,9.628702163696289,-1.7114595174789429,0.15275438129901886,0.8257598280906677,-0.28810441493988037,-0.17693252861499786
1785712350933870,676955995,-0.39757871627807617,0.6396323442459106,0.27991220355033875,0.5953577160835266,9.612332344055176,-1.7108508348464966,0.13060687482357025,1.0519840717315674,-0.5676543116569519,-0.08184538036584854
1785712350992189,676972662,-0.39757323265075684,0.6397045850753784,0.279964417219162,0.5952591896057129,9.634309768676758,-1.7055541276931763,0.176980122923851,0.8375160694122314,-0.9516527056694031,-0.031145041808485985
1785712350993936,676989329,-0.3975200355052948,0.6397947072982788,0.2799571752548218,0.5952012538909912,9.635607719421387,-1.725373387336731,0.19837579131126404,0.2583104372024536,-0.776807427406311,-0.04133889824151993
1785712350995255,677005996,-0.3974544107913971,0.6398723125457764,0.27993685007095337,0.5951711535453796,9.691564559936523,-1.718188762664795,0.21227294206619263,0.1315404176712036,-0.5909233689308167,-0.13511978089809418
1785712351034663,677022663,-0.39741238951683044,0.6399413347244263,0.27989768981933594,0.5951436161994934,9.710526466369629,-1.7109609842300415,0.23093359172344208,0.1766059845685959,-0.4473514258861542,0.02063743583858013
1785712351034917,677039330,-0.39740505814552307,0.6399691104888916,0.2798548936843872,0.5951387286186218,9.737218856811523,-1.6974575519561768,0.20585006475448608,0.3840431869029999,-0.10245078802108765,0.03804125636816025
1785712351052172,677055997,-0.39748653769493103,0.6398816704750061,0.27984654903411865,0.5951822996139526,9.714941024780273,-1.6985313892364502,0.19528192281723022,1.1367491483688354,0.6594565510749817,-0.10462787747383118
1785712351053846,677072664,-0.39763474464416504,0.6397246718406677,0.2798442244529724,0.5952532887458801,9.687521934509277,-1.6873430013656616,0.18919600546360016,1.5920275449752808,1.1769355535507202,-0.06665704399347305
1785712351082176,677089331,-0.3978050649166107,0.6395524740219116,0.27988243103027344,0.5953064560890198,9.693438529968262,-1.690264105796814,0.21086032688617706,1.9323949813842773,1.0919654369354248,-0.13520945608615875
1785712351083811,677105998,-0.39798998832702637,0.6393783092498779,0.2799648940563202,0.5953311920166016,9.708166122436523,-1.6962469816207886,0.23594185709953308,2.2372500896453857,0.8816851377487183,-0.19582189619541168
1785712351156862,677122665,-0.39816582202911377,0.6391909718513489,0.28004541993141174,0.5953768491744995,9.701305389404297,-1.6962159872055054,0.2435530722141266,2.1851797103881836,1.0159085988998413,-0.30696821212768555
1785712351172526,677139332,-0.39832624793052673,0.6389694213867188,0.2801184058189392,0.5954729318618774,9.682918548583984,-1.7044897079467773,0.25651758909225464,2.0857768058776855,1.368249773979187,-0.5408506393432617
1785712351173955,677155999,-0.3984873592853546,0.6387261152267456,0.2801668047904968,0.5956032872200012,9.667413711547852,-1.688656210899353,0.2501888573169708,1.9803290367126465,1.6764216423034668,-0.5656052231788635
1785712351175257,677172666,-0.39865511655807495,0.6384806036949158,0.28021207451820374,0.595733106136322,9.662677764892578,-1.6784212589263916,0.27392104268074036,2.0007553100585938,1.7050567865371704,-0.5278393030166626
1785712351202191,677189333,-0.39880383014678955,0.6382734179496765,0.28028056025505066,0.5958231091499329,9.661572456359863,-1.681296944618225,0.25318774580955505,1.9852980375289917,1.2722276449203491,-0.5249195098876953
1785712351203519,677206000,-0.39894071221351624,0.6380918622016907,0.2803643047809601,0.595886766910553,9.655158996582031,-1.672999382019043,0.24504069983959198,1.9756934642791748,0.9871198534965515,-0.5180040597915649
1785712351204855,677222667,-0.3990681767463684,0.6379334926605225,0.2804511785507202,0.5959302186965942,9.65466022491455,-1.6986674070358276,0.23662768304347992,1.9233794212341309,0.7771981358528137,-0.4703260362148285
1785712351232214,677239334,-0.39917415380477905,0.6377850770950317,0.28052422404289246,0.595983624458313,9.652562141418457,-1.6916874647140503,0.24799957871437073,1.7269810438156128,0.7760711908340454,-0.5055690407752991
1785712351233810,677256001,-0.3992545008659363,0.6376711130142212,0.28059446811676025,0.5960187315940857,9.627516746520996,-1.7038016319274902,0.2532712519168854,1.5443624258041382,0.5130031108856201,-0.4816339910030365
1785712351291603,677272668,-0.39934489130973816,0.6375609040260315,0.2806444466114044,0.5960524678230286,9.656460762023926,-1.6995439529418945,0.24665862321853638,1.496466875076294,0.566469669342041,-0.3403799831867218
1785712351292255,677289335,-0.39947056770324707,0.637460470199585,0.28069499135017395,0.5960519313812256,9.66128921508789,-1.7355482578277588,0.27046576142311096,1.693838119506836,0.4428243637084961,-0.08562325686216354
1785712351296258,677306002,-0.399614542722702,0.6373788118362427,0.2807393968105316,0.5960217714309692,9.679618835449219,-1.7507967948913574,0.29584506154060364,1.7556031942367554,0.28772667050361633,0.13380713760852814
1785712351296731,677322669,-0.39975106716156006,0.637321412563324,0.2807398736476898,0.5959914326667786,9.66112232208252,-1.7198503017425537,0.30918774008750916,1.4754387140274048,0.2942451238632202,0.3430628776550293
1785712351352160,677339336,-0.3998797535896301,0.6372779011726379,0.2807081937789917,0.5959665775299072,9.655247688293457,-1.7355109453201294,0.3284253776073456,1.2593187093734741,0.33466196060180664,0.4634169638156891
1785712351353327,677356003,-0.3999827802181244,0.6372513175010681,0.2805936634540558,0.5959797501564026,9.669628143310547,-1.7322568893432617,0.29371681809425354,0.6875665783882141,0.6104211211204529,0.6492499709129333
1785712351354669,677372670,-0.400084525346756,0.6372498273849487,0.2804439663887024,0.5959834456443787,9.655420303344727,-1.7261101007461548,0.26234227418899536,0.48787710070610046,0.5601561665534973,0.8726951479911804
1785712351382171,677389337,-0.40022024512290955,0.6372376084327698,0.2802782356739044,0.5959833264350891,9.671066284179688,-1.7148762941360474,0.26321056485176086,0.608000636100769,0.6970816254615784,1.071974754333496
1785712351383809,677406004,-0.4003874957561493,0.6371957063674927,0.2801317572593689,0.5959846377372742,9.664579391479492,-1.7041984796524048,0.2582811415195465,0.9016246795654297,0.8330850601196289,1.0555953979492188
1785712351425237,677422671,-0.4005945920944214,0.6371327638626099,0.2800336182117462,0.5959588289260864,9.671067237854004,-1.6785129308700562,0.29225316643714905,1.3867931365966797,0.7436583042144775,1.0414185523986816
1785712351425567,677439338,-0.4007723033428192,0.6370901465415955,0.2799714207649231,0.5959141254425049,9.670039176940918,-1.685713529586792,0.32524189352989197,1.3845394849777222,0.4218475818634033,0.8551120758056641
1785712351442187,677456005,-0.4009101390838623,0.6370517611503601,0.2798980474472046,0.5958970785140991,9.671492576599121,-1.6875147819519043,0.36567607522010803,1.1006354093551636,0.4795786440372467,0.6724422574043274
1785712351443754,677472672,-0.40091806650161743,0.6370441317558289,0.27967047691345215,0.5960066914558411,9.681925773620605,-1.6962590217590332,0.3703232705593109,-0.43019092082977295,1.0836797952651978,0.5256430506706238
1785712351472370,677489339,-0.40098047256469727,0.6371234655380249,0.27969029545783997,0.5958707332611084,9.658217430114746,-1.6798079013824463,0.12096431851387024,1.0577725172042847,-0.9259119629859924,0.5096222758293152
1785712351502182,677506006,-0.40095773339271545,0.6372454762458801,0.27959996461868286,0.5957977771759033,9.738448143005371,-1.7229596376419067,0.3990486264228821,-0.004725542850792408,-0.6849859952926636,0.551652729511261
1785712351503687,677522673,-0.400943785905838,0.6373563408851624,0.27951139211654663,0.5957302451133728,9.556840896606445,-1.667374610900879,0.051333002746105194,0.05960714817047119,-0.6031534075737,0.5433669686317444
1785712351554492,677539340,-0.4010130763053894,0.6371321082115173,0.27907851338386536,0.5961262583732605,9.64151382446289,-1.7394227981567383,0.40962332487106323,-0.953266441822052,3.9099647998809814,0.47138261795043945
1785712351554949,677556007,-0.40095147490501404,0.6372619867324829,0.2789684534072876,0.5960804224014282,9.639126777648926,-1.6934092044830322,0.28382211923599243,-0.3315179646015167,-0.6180856227874756,0.41859474778175354
1785712351562210,677572674,-0.4010277986526489,0.6373918056488037,0.2790510058403015,0.5958516001701355,9.70098876953125,-1.706344485282898,0.3548932671546936,1.411906361579895,-1.685892105102539,0.6443578600883484
1785712351563869,677589341,-0.4011678099632263,0.6375414729118347,0.27939146757125854,0.5954374670982361,9.666614532470703,-1.6877511739730835,0.2711786925792694,3.04909610748291,-3.1685729026794434,0.3241094946861267
1785712351592208,677606008,-0.4012552499771118,0.637690544128418,0.27964848279953003,0.5950981974601746,9.670841217041016,-1.692638635635376,0.28542542457580566,2.3355517387390137,-2.708991289138794,0.2670060098171234
1785712351593887,677622675,-0.40131253004074097,0.6377415060997009,0.2798222601413727,0.5949232578277588,9.66405200958252,-1.7484350204467773,0.2677920460700989,1.8166000843048096,-1.4160237312316895,-0.133006751537323
1785712351622381,677639342,-0.40140944719314575,0.6376743316650391,0.27985402941703796,0.594914972782135,9.61935806274414,-1.7529280185699463,0.19273388385772705,1.4156843423843384,0.2672237157821655,-0.03579375147819519
1785712351652629,677656009,-0.4015536308288574,0.6375569105148315,0.27987098693847656,0.5949352979660034,9.60605239868164,-1.707895040512085,0.21382193267345428,1.6453791856765747,0.7299684286117554,0.047210611402988434
1785712351654205,677672676,-0.401701420545578,0.6374659538269043,0.27993330359458923,0.594903826713562,9.609859466552734,-1.7070579528808594,0.26296281814575195,1.8737289905548096,0.27620092034339905,0.0567641407251358
1785712351687980,677689343,-0.40181106328964233,0.6374357342720032,0.27999043464660645,0.5948353409767151,9.570013046264648,-1.7147154808044434,0.32492920756340027,1.5877504348754883,-0.19370883703231812,0.1426563262939453
1785712351688239,677706010,-0.4017751216888428,0.6376121640205383,0.28004464507102966,0.5946449637413025,9.632765769958496,-1.7374600172042847,0.32656097412109375,0.6019688844680786,-1.8452026844024658,0.2946932911872864
1785712351712176,677722677,-0.40170514583587646,0.6378567218780518,0.2801035940647125,0.5944020748138428,9.65786075592041,-1.7546579837799072,0.287854939699173,0.3869502544403076,-2.4330272674560547,0.41115427017211914
1785712351713752,677739344,-0.40163901448249817,0.6380962133407593,0.28014618158340454,0.5941694378852844,9.683706283569336,-1.768932580947876,0.26877743005752563,0.33128106594085693,-2.314619541168213,0.46035629510879517
1785712351742477,677756011,-0.4016103744506836,0.6382957100868225,0.2801811695098877,0.5939581990242004,9.724273681640625,-1.7604089975357056,0.28806841373443604,0.5310729146003723,-1.963917851448059,0.5105443596839905
1785712351744092,677772678,-0.40162593126296997,0.6384130120277405,0.2801644206047058,0.5938295125961304,9.713249206542969,-1.7636350393295288,0.2580672800540924,0.5840911865234375,-1.0383388996124268,0.5323535203933716
1785712351772713,677789345,-0.401701956987381,0.638460099697113,0.2801404297351837,0.5937387347221375,9.706040382385254,-1.756392478942871,0.18814879655838013,0.9404022097587585,-0.44872167706489563,0.5709262490272522
1785712351820893,677806012,-0.4017992317676544,0.6384552717208862,0.28005531430244446,0.5937182307243347,9.670160293579102,-1.753798484802246,0.33073365688323975,0.7918998599052429,0.2808496654033661,0.6319614052772522
1785712351822051,677822679,-0.4019106328487396,0.6383815407752991,0.27993109822273254,0.5937805771827698,9.63521671295166,-1.7363402843475342,0.19661572575569153,0.7256782054901123,1.0617167949676514,0.49971020221710205
1785712351832183,677839346,-0.40197524428367615,0.6383980512619019,0.27983713150024414,0.5937635898590088,9.639012336730957,-1.762884259223938,0.21491575241088867,0.5469782948493958,0.1714962273836136,0.5687107443809509
1785712351833893,677856013,-0.40204155445098877,0.6384377479553223,0.27974897623062134,0.5937175154685974,9.633810997009277,-1.7644078731536865,0.2930687963962555,0.5709006190299988,-0.06382683664560318,0.6751443147659302
1785712351862219,677872680,-0.40211519598960876,0.6385051012039185,0.2796975374221802,0.5936195254325867,9.611735343933105,-1.721128225326538,0.25460174679756165,0.7754309773445129,-0.4917510449886322,0.7405720949172974
1785712351863794,677889347,-0.40213146805763245,0.638619065284729,0.2796544134616852,0.5935061573982239,9.67497730255127,-1.7464803457260132,0.2963111102581024,0.4590691924095154,-0.8828826546669006,0.6023595333099365
1785712351892175,677906014,-0.4020947515964508,0.6387649178504944,0.2795332074165344,0.5934312343597412,9.68519115447998,-1.777888536453247,0.33428046107292175,-0.2555891275405884,-0.7300003170967102,0.6837374567985535
1785712351893842,677922681,-0.40202197432518005,0.6388815641403198,0.2792796790599823,0.5934743285179138,9.679946899414062,-1.775039792060852,0.28527379035949707,-1.0988998413085938,0.2042420357465744,0.7355262637138367
1785712351949767,677939348,-0.40193459391593933,0.638971745967865,0.2789543569087982,0.5935892462730408,9.666070938110352,-1.7704201936721802,0.2534245252609253,-1.5219577550888062,0.7974961996078491,0.7418269515037537
1785712351952567,677956015,-0.4018719792366028,0.6390182375907898,0.27859970927238464,0.5937480330467224,9.637248039245605,-1.7764561176300049,0.25471967458724976,-1.49655020236969,1.2969567775726318,0.7663640379905701
1785712351954129,677972682,-0.40181583166122437,0.6390772461891174,0.2782471179962158,0.5938879251480103,9.633028030395508,-1.7826921939849854,0.23902106285095215,-1.45654296875,1.1692644357681274,0.8600039482116699
1785712351982184,677989349,-0.40173622965812683,0.6391952037811279,0.27792128920555115,0.5939673185348511,9.635828971862793,-1.7627660036087036,0.2308969497680664,-1.4971261024475098,0.5442505478858948,0.9266737699508667
1785712351983984,678006016,-0.40163931250572205,0.6393527388572693,0.277652382850647,0.5939893126487732,9.635575294494629,-1.7890278100967407,0.2165757268667221,-1.3407479524612427,-0.059959329664707184,0.8401157259941101
1785712352012256,678022683,-0.4015171527862549,0.6395392417907715,0.2774272859096527,0.5939762592315674,9.62924575805664,-1.7966030836105347,0.16798652708530426,-1.2844129800796509,-0.5019320845603943,0.6971457004547119
1785712352013942,678039350,-0.4013901650905609,0.6397095918655396,0.2772309184074402,0.5939702987670898,9.637615203857422,-1.8062595129013062,0.18080857396125793,-1.1597814559936523,-0.49244260787963867,0.4999535381793976
1785712352042261,678056017,-0.4012473523616791,0.6398650407791138,0.2770586609840393,0.5939797759056091,9.646622657775879,-1.821395754814148,0.21128396689891815,-1.118903636932373,-0.46079814434051514,0.2586178183555603
1785712352043923,678072684,-0.401114284992218,0.6400096416473389,0.27688995003700256,0.5939925909042358,9.655759811401367,-1.8193492889404297,0.19488540291786194,-1.0359183549880981,-0.39293718338012695,0.25273969769477844
1785712352082149,678089351,-0.40101414918899536,0.6401376128196716,0.2767523527145386,0.5939862728118896,9.674362182617188,-1.8155028820037842,0.19598227739334106,-0.683013916015625,-0.4323807954788208,0.2715138792991638
1785712352102227,678106018,-0.4009498059749603,0.6402649283409119,0.2766314148902893,0.5939489006996155,9.672409057617188,-1.8069642782211304,0.2234412431716919,-0.3966894745826721,-0.5440393090248108,0.42900630831718445
1785712352104260,678122685,-0.40092042088508606,0.640381395816803,0.276533842086792,0.5938884615898132,9.674885749816895,-1.8107730150222778,0.21589557826519012,-0.07152345776557922,-0.5995292663574219,0.5119145512580872
1785712352132181,678139352,-0.4009026288986206,0.6404902935028076,0.27642199397087097,0.5938350558280945,9.669235229492188,-1.8240410089492798,0.1974567025899887,-0.07345721870660782,-0.4760119915008545,0.5878434181213379
1785712352133986,678156019,-0.4008804261684418,0.64060378074646,0.27629947662353516,0.5937848091125488,9.676555633544922,-1.8128795623779297,0.21410037577152252,-0.15610940754413605,-0.45914608240127563,0.6167538166046143
1785712352162180,678172686,-0.4008669853210449,0.6407144069671631,0.27616262435913086,0.5937381386756897,9.650802612304688,-1.8235045671463013,0.21716876327991486,-0.17474262416362762,-0.37529006600379944,0.7005137801170349
1785712352163832,678189353,-0.4008426368236542,0.6408191919326782,0.2760416567325592,0.5936977863311768,9.639330863952637,-1.8371942043304443,0.24269215762615204,-0.1532151699066162,-0.38946670293807983,0.5580815076828003
1785712352212541,678206020,-0.4008365273475647,0.640897810459137,0.27591806650161743,0.5936743021011353,9.623030662536621,-1.820014238357544,0.2250400185585022,-0.04197921231389046,-0.16570134460926056,0.5474905967712402
1785712352213221,678222687,-0.40083152055740356,0.6409861445426941,0.27579447627067566,0.5936399102210999,9.612351417541504,-1.815526008605957,0.21003781259059906,-0.04393858462572098,-0.251222163438797,0.6005856990814209
1785712352222467,678239354,-0.4008379578590393,0.6410496234893799,0.2757054269313812,0.5936084389686584,9.606759071350098,-1.8167741298675537,0.17372827231884003,0.20921091735363007,-0.21028025448322296,0.43972522020339966
1785712352282191,678256021,-0.4008370339870453,0.6411181092262268,0.2756592929363251,0.5935565233230591,9.620076179504395,-1.803452968597412,0.1784028559923172,0.3770509362220764,-0.45311421155929565,0.28649723529815674
1785712352284307,678272688,-0.40084731578826904,0.6411699652671814,0.2756650745868683,0.5934908390045166,9.621429443359375,-1.7962992191314697,0.17691436409950256,0.7097471356391907,-0.5674110054969788,0.10984645783901215
1785712352285074,678289355,-0.4008547365665436,0.6412159204483032,0.2756751477718353,0.5934314727783203,9.600272178649902,-1.797119140625,0.22526761889457703,0.7193390130996704,-0.5325520634651184,0.05038657784461975
1785712352312207,678306022,-0.4008537232875824,0.6412539482116699,0.27570459246635437,0.593377411365509,9.610997200012207,-1.794715166091919,0.2556486129760742,0.7739838361740112,-0.5468055605888367,-0.09871134907007217
1785712352342555,678322689,-0.4007849395275116,0.6413102746009827,0.27563396096229553,0.5933957695960999,9.647212982177734,-1.7953490018844604,0.2666384279727936,-0.1202516183257103,-0.15447019040584564,-0.09899307787418365
1785712352343420,678339356,-0.4007314443588257,0.6413988471031189,0.27561232447624207,0.5933461785316467,9.674965858459473,-1.8201894760131836,0.11410960555076599,0.185698464512825,-0.6917862296104431,-0.0040339999832212925
1785712352346440,678356023,-0.400663822889328,0.6415982246398926,0.2757740020751953,0.5931010842323303,9.705832481384277,-1.7914243936538696,0.16907469928264618,0.9378922581672668,-2.5380008220672607,-0.12192925810813904
1785712352347568,678372690,-0.40054237842559814,0.6418005228042603,0.275802880525589,0.5929509401321411,9.676523208618164,-1.838773250579834,0.08427149057388306,-0.02950582653284073,-1.8670631647109985,-0.011231168173253536
1785712352372417,678389357,-0.4004332721233368,0.6417821645736694,0.2754732370376587,0.5931977033615112,9.634812355041504,-1.86729896068573,0.28065159916877747,-1.5805596113204956,1.79423987865448,0.10971840471029282
1785712352402281,678406024,-0.40030360221862793,0.6418485045433044,0.2752600908279419,0.5933124423027039,9.639110565185547,-1.8239911794662476,0.24561001360416412,-1.1792471408843994,0.5064079165458679,0.0357489287853241
1785712352403980,678422691,-0.4002525508403778,0.641965925693512,0.27521568536758423,0.5932404398918152,9.68756103515625,-1.8457368612289429,0.22801128029823303,0.0684947669506073,-0.8416077494621277,0.22246551513671875
1785712352433271,678439358,-0.4003794193267822,0.6420357823371887,0.27542030811309814,0.5929840207099915,9.670706748962402,-1.8165000677108765,0.2559369206428528,2.348844528198242,-1.8099983930587769,0.26642972230911255
1785712352434760,678456025,-0.4004723131656647,0.6422040462493896,0.2757200300693512,0.5925997495651245,9.656314849853516,-1.794559121131897,0.21834447979927063,2.5590996742248535,-3.102146625518799,0.24687443673610687
1785712352476306,678472692,-0.40048277378082275,0.6424099802970886,0.2759280502796173,0.5922727584838867,9.655675888061523,-1.8158985376358032,0.27128881216049194,1.608176589012146,-2.906106472015381,0.22912481427192688
1785712352476762,678489359,-0.400455117225647,0.6425517201423645,0.2760920226573944,0.5920611619949341,9.630023002624512,-1.8741027116775513,0.19256460666656494,1.2177878618240356,-2.0859880447387695,-0.17087513208389282
1785712352492186,678506026,-0.40051382780075073,0.64258873462677,0.27618348598480225,0.5919385552406311,9.662571907043457,-1.8512691259384155,0.16531668603420258,1.423496127128601,-0.9025145173072815,0.05690500885248184
1785712352493757,678522693,-0.40065324306488037,0.6425739526748657,0.2763140797615051,0.591799259185791,9.665943145751953,-1.8325685262680054,0.17769305408000946,2.113323211669922,-0.7205236554145813,0.16014981269836426
1785712352522403,678539360,-0.40082746744155884,0.64253169298172,0.2764616012573242,0.5916582345962524,9.634971618652344,-1.8321788311004639,0.18191899359226227,2.4150025844573975,-0.5965070724487305,0.17960266768932343
1785712352552180,678556027,-0.4009777307510376,0.6424800753593445,0.27654483914375305,0.5915736556053162,9.61483383178711,-1.8220393657684326,0.19444386661052704,1.9671385288238525,-0.17844367027282715,0.19297246634960175
1785712352553808,678572694,-0.4010559022426605,0.6424670815467834,0.2765730321407318,0.5915213823318481,9.627053260803223,-1.829137921333313,0.2009817659854889,1.2563477754592896,-0.17776495218276978,0.12719908356666565
1785712352606868,678589361,-0.40110114216804504,0.6425102949142456,0.27660077810287476,0.5914307832717896,9.636130332946777,-1.835465908050537,0.19768026471138,1.0253980159759521,-0.6367957592010498,0.20766134560108185
1785712352607318,678606028,-0.40109866857528687,0.6426050066947937,0.276633083820343,0.5913145542144775,9.646245956420898,-1.8427002429962158,0.19451704621315002,0.7429924607276917,-1.06277334690094,0.16210919618606567
1785712352612188,678622695,-0.4011020064353943,0.6427214741706848,0.27662137150764465,0.5911912322044373,9.659769058227539,-1.8423948287963867,0.22233818471431732,0.5415741205215454,-1.0497750043869019,0.4410058856010437
1785712352613747,678639362,-0.4011063277721405,0.6428210735321045,0.27662694454193115,0.5910772681236267,9.658827781677246,-1.8333663940429688,0.12826882302761078,0.6453824043273926,-0.9859481453895569,0.3108677566051483
1785712352642185,678656029,-0.4011346995830536,0.6428653597831726,0.27656883001327515,0.5910370945930481,9.656213760375977,-1.8325951099395752,0.21662132441997528,0.5036801695823669,-0.21405813097953796,0.38175085186958313
1785712352644680,678672696,-0.4012003242969513,0.6428009867668152,0.2764680087566376,0.5911098122596741,9.644402503967285,-1.8123118877410889,0.1200861856341362,0.581286609172821,0.9149430990219116,0.20389628410339355
1785712352672858,678689363,-0.4012266993522644,0.6427729725837708,0.27641645073890686,0.5911463499069214,9.642409324645996,-1.833614468574524,0.12360087782144547,0.5756646394729614,0.39710572361946106,-0.004635898862034082
1785712352702604,678706030,-0.40127235651016235,0.6427415609359741,0.27640393376350403,0.5911553502082825,9.637574195861816,-1.8439905643463135,0.12971356511116028,0.8810961246490479,0.21880289912223816,-0.02937776781618595
1785712352704650,678722697,-0.40128135681152344,0.6427651643753052,0.2763864994049072,0.5911317467689514,9.638272285461426,-1.850905418395996,0.206068217754364,0.6104723215103149,-0.20545226335525513,0.03815652057528496
1785712352741421,678739364,-0.4013024866580963,0.6427960991859436,0.27638646960258484,0.5910837650299072,9.60891056060791,-1.8248978853225708,0.16664250195026398,0.7609596848487854,-0.3684386610984802,0.091443732380867
1785712352741697,678756031,-0.40125203132629395,0.6428489685058594,0.27634739875793457,0.5910787582397461,9.61457633972168,-1.8548463582992554,0.2002890706062317,0.14409063756465912,-0.29564741253852844,-0.10364179313182831
1785712352762520,678772698,-0.4012078642845154,0.6428382992744446,0.2762243449687958,0.5911779403686523,9.629338264465332,-1.8667229413986206,0.15798968076705933,-0.19305573403835297,0.6675758361816406,-0.1150650605559349
1785712352764073,678789365,-0.40120890736579895,0.6427748203277588,0.27607542276382446,0.5913158655166626,9.645706176757812,-1.8327207565307617,0.1882750540971756,-0.025241317227482796,1.2099504470825195,-0.02415277622640133
1785712352792483,678806032,-0.40118008852005005,0.6427334547042847,0.27596476674079895,0.5914319157600403,9.613432884216309,-1.8059836626052856,0.18941611051559448,-0.02159150503575802,0.8613358736038208,-0.21232926845550537
1785712352793870,678822699,-0.4010925889015198,0.6427547931671143,0.2759033441543579,0.5914967060089111,9.621431350708008,-1.8010709285736084,0.1940414309501648,-0.1587090790271759,0.13287226855754852,-0.40847131609916687
1785712352822392,678839366,-0.40094247460365295,0.6428430676460266,0.27587220072746277,0.5915170907974243,9.617318153381348,-1.8092509508132935,0.1864699125289917,-0.4090924859046936,-0.538411021232605,-0.5471065640449524
1785712352869644,678856033,-0.4007231593132019,0.6430017948150635,0.2758738696575165,0.5914924144744873,9.649147987365723,-1.8186736106872559,0.20362423360347748,-0.6921704411506653,-1.2453535795211792,-0.7157469391822815
1785712352870437,678872700,-0.40046000480651855,0.6432130932807922,0.27592408657073975,0.5914174318313599,9.723387718200684,-1.819779872894287,0.22646398842334747,-0.7366980910301208,-1.8992586135864258,-0.8702555298805237
1785712352882202,678889367,-0.40018051862716675,0.6434212327003479,0.27594131231307983,0.5913721323013306,9.746424674987793,-1.8512232303619385,0.21670779585838318,-0.9916725158691406,-1.6938319206237793,-0.8786565065383911
1785712352883736,678906034,-0.39991697669029236,0.6435584425926208,0.27587640285491943,0.5914316177368164,9.733498573303223,-1.8717058897018433,0.1873483806848526,-1.2592356204986572,-0.6867789626121521,-0.8730857372283936
1785712352912189,678922701,-0.3996775448322296,0.6436622142791748,0.2757907509803772,0.5915204286575317,9.717184066772461,-1.8563669919967651,0.1653892993927002,-1.1996989250183105,-0.31799450516700745,-0.8272133469581604
1785712352913763,678939368,-0.39956703782081604,0.6435939073562622,0.2756233513355255,0.5917472839355469,9.659090995788574,-1.8663102388381958,0.18425047397613525,-0.7510027885437012,1.4619792699813843,-0.6468999981880188
1785712352942218,678956035,-0.3995031416416168,0.6434867978096008,0.2754754424095154,0.5919759273529053,9.641560554504395,-1.8495570421218872,0.1853056252002716,-0.3626118302345276,1.6622962951660156,-0.6219788789749146
1785712352943915,678972702,-0.39949238300323486,0.6433939933776855,0.27536511421203613,0.5921353101730347,9.618380546569824,-1.8478541374206543,0.19314263761043549,0.11790166050195694,1.2952150106430054,-0.35449254512786865
1785712352999595,678989369,-0.3994944095611572,0.6433400511741638,0.2753082513809204,0.5922188758850098,9.612702369689941,-1.843058705329895,0.22314319014549255,0.42809703946113586,0.6796009540557861,-0.2576637268066406
1785712353002327,679006036,-0.39950504899024963,0.6433261632919312,0.275291383266449,0.5922346711158752,9.608468055725098,-1.8213731050491333,0.17612820863723755,0.6487247943878174,0.12247353792190552,-0.13743773102760315
1785712353032221,679022703,-0.3995063900947571,0.6433404684066772,0.27527958154678345,0.5922237634658813,9.623748779296875,-1.8338898420333862,0.16972322762012482,0.6016358733177185,-0.14213766157627106,-0.07043492794036865
1785712353033311,679039370,-0.39949917793273926,0.6433562636375427,0.2752652168273926,0.5922179818153381,9.636762619018555,-1.81520414352417,0.16512779891490936,0.5382060408592224,-0.13369828462600708,-0.10569079965353012
1785712353034846,679056037,-0.39948150515556335,0.643379807472229,0.2752276659011841,0.5922217965126038,9.662904739379883,-1.8187803030014038,0.16235636174678802,0.3591476380825043,-0.07978355139493942,-0.05689861252903938
1785712353062522,679072704,-0.3994888663291931,0.6433961987495422,0.27520546317100525,0.5922093391418457,9.652745246887207,-1.8145103454589844,0.18149250745773315,0.58366858959198,-0.11786964535713196,0.008164048194885254
1785712353064754,679089371,-0.3995092213153839,0.6434073448181152,0.2751699388027191,0.5922000408172607,9.65848159790039,-1.8079551458358765,0.1825832575559616,0.5927738547325134,-0.021066445857286453,0.1014326885342598
1785712353092178,679106038,-0.3995256721973419,0.6434332728385925,0.2751217186450958,0.5921831727027893,9.658252716064453,-1.8074723482131958,0.21040257811546326,0.498429536819458,-0.08648128062486649,0.1901678889989853
1785712353093845,679122705,-0.3995197117328644,0.6434478163719177,0.2750622630119324,0.5921990275382996,9.668301582336426,-1.820414662361145,0.17542369663715363,0.32284167408943176,0.09281402081251144,0.03732410818338394
1785712353131934,679139372,-0.39949288964271545,0.6434606313705444,0.27498021721839905,0.5922412872314453,9.66692066192627,-1.8421508073806763,0.15046176314353943,0.09373606741428375,0.238627091050148,-0.02339719980955124
1785712353152197,679156039,-0.39944374561309814,0.6434906721115112,0.2748921811580658,0.5922827124595642,9.676143646240234,-1.8254103660583496,0.15586529672145844,-0.07217658311128616,0.13885283470153809,-0.05277496576309204
1785712353153785,679172706,-0.39942967891693115,0.643464207649231,0.27481475472450256,0.5923568606376648,9.639848709106445,-1.8391361236572266,0.14286233484745026,0.21534517407417297,0.5508331060409546,-0.15347129106521606
1785712353182213,679189373,-0.3994428515434265,0.6433888077735901,0.27474451065063477,0.5924625396728516,9.627123832702637,-1.8427000045776367,0.18264031410217285,0.43993011116981506,0.9219227433204651,-0.25369375944137573
1785712353183660,679206040,-0.399447500705719,0.6433237195014954,0.2746916115283966,0.59255450963974,9.624288558959961,-1.8389970064163208,0.2222762405872345,0.47188204526901245,0.755120038986206,-0.3076725900173187
1785712353212267,679222707,-0.39939144253730774,0.6432821750640869,0.2746065855026245,0.5926768183708191,9.618844032287598,-1.823075294494629,0.2340635359287262,-0.048331163823604584,0.7677983045578003,-0.45189765095710754
1785712353213965,679239374,-0.3993337154388428,0.6432619690895081,0.27457281947135925,0.5927532315254211,9.620366096496582,-1.833764672279358,0.077614426612854,0.18076801300048828,0.333086758852005,-0.5186700224876404
1785712353272220,679256041,-0.39927512407302856,0.6433684229850769,0.27470171451568604,0.5926174521446228,9.642959594726562,-1.7826706171035767,0.13927242159843445,0.8918148279190063,-1.5696483850479126,-0.4202146828174591
1785712353273306,679272708,-0.3991559147834778,0.6435593962669373,0.27484291791915894,0.5924248099327087,9.642683982849121,-1.838521957397461,0.11216408759355545,0.5484768152236938,-2.313518524169922,-0.406076580286026
1785712353274496,679289375,-0.3990170359611511,0.6435577273368835,0.27466723322868347,0.5926018953323364,9.572172164916992,-1.8335342407226562,0.0987568199634552,-0.9986519813537598,0.938993513584137,-0.46220675110816956
1785712353302227,679306042,-0.3988438844680786,0.6435489654541016,0.27435800433158875,0.5928711295127869,9.676024436950684,-1.8497039079666138,0.20168668031692505,-1.8477258682250977,1.677830457687378,-0.2773343026638031
1785712353303782,679322709,-0.3987519145011902,0.6436493396759033,0.27429214119911194,0.5928544998168945,9.660001754760742,-1.8238661289215088,0.1090528592467308,-0.25758689641952515,-0.5461651682853699,-0.03362947329878807
1785712353373491,679339376,-0.3988770544528961,0.6436460614204407,0.2744429409503937,0.5927038788795471,9.665623664855957,-1.8148092031478882,0.16743133962154388,2.124093532562256,-0.9012084603309631,0.06469127535820007
1785712353373920,679356043,-0.39901041984558105,0.6437160968780518,0.27472493052482605,0.5924074053764343,9.62973403930664,-1.7981094121932983,0.14980009198188782,2.7697768211364746,-2.189617156982422,0.05590612441301346
1785712353374181,679372710,-0.3990480899810791,0.6438215374946594,0.2748830020427704,0.592194139957428,9.643911361694336,-1.8389310836791992,0.2289029061794281,1.586380124092102,-1.8063485622406006,0.052781373262405396
1785712353392205,679389377,-0.39901939034461975,0.6439433693885803,0.27496466040611267,0.5920431017875671,9.651717185974121,-1.886027455329895,0.15889202058315277,0.8182938098907471,-1.5133392810821533,-0.018556401133537292
1785712353393434,679406044,-0.39907321333885193,0.6439816951751709,0.27500006556510925,0.5919486284255981,9.68934154510498,-1.8465075492858887,0.15530332922935486,1.1181544065475464,-0.6402150392532349,0.20890358090400696
1785712353394787,679422711,-0.3992123603820801,0.6439383625984192,0.2751234471797943,0.5918446779251099,9.70055103302002,-1.8118665218353271,0.1442427784204483,2.095355749130249,-0.42976832389831543,0.03859193995594978
1785712353422388,679439378,-0.39938658475875854,0.6438403725624084,0.27523815631866455,0.591780424118042,9.658223152160645,-1.8044333457946777,0.1680932492017746,2.29052472114563,0.058787550777196884,0.006973057985305786
1785712353452199,679456045,-0.3994919955730438,0.643761932849884,0.2752605080604553,0.5917842388153076,9.633871078491211,-1.8072481155395508,0.15878893435001373,1.4285547733306885,0.4038034677505493,-0.013830859214067459
1785712353454488,679472712,-0.3995465338230133,0.6437116861343384,0.27518314123153687,0.5918378829956055,9.636433601379395,-1.805227518081665,0.20752333104610443,0.6245977282524109,0.6875792741775513,0.13685505092144012
1785712353542223,679489379,-0.3995743989944458,0.6437127590179443,0.27510374784469604,0.5918547511100769,9.664735794067383,-1.8304351568222046,0.20221664011478424,0.42880144715309143,0.27092471718788147,0.23575852811336517
1785712353543881,679506046,-0.39961427450180054,0.6437408924102783,0.2750352621078491,0.5918292999267578,9.66423511505127,-1.8433881998062134,0.17716173827648163,0.5310856103897095,-0.033859983086586,0.40327829122543335
1785712353545401,679522713,-0.39970019459724426,0.6437240839004517,0.27495884895324707,0.5918249487876892,9.678900718688965,-1.8338197469711304,0.18839508295059204,0.7837423086166382,0.35078513622283936,0.48347175121307373
1785712353572204,679539380,-0.3998161256313324,0.6436505317687988,0.27486613392829895,0.5918698310852051,9.676149368286133,-1.8322314023971558,0.13693179190158844,0.9160702228546143,0.9007537364959717,0.4352557957172394
1785712353573438,679556047,-0.3999636471271515,0.643547773361206,0.27481961250305176,0.5919034481048584,9.684741020202637,-1.8432252407073975,0.11697249859571457,1.343597412109375,0.9027899503707886,0.3348924517631531
1785712353574447,679572714,-0.4001539349555969,0.6433833837509155,0.2747732698917389,0.5919749140739441,9.688713073730469,-1.8281278610229492,0.20111967623233795,1.6323678493499756,1.401366949081421,0.28750893473625183
1785712353602206,679589381,-0.4002537429332733,0.6433963775634766,0.2749336361885071,0.5918189287185669,9.697014808654785,-1.8195840120315552,0.1100112721323967,2.0155465602874756,-1.066179871559143,-0.03383437544107437
1785712353603251,679606048,-0.400359183549881,0.643332839012146,0.27489644289016724,0.5918340086936951,9.768444061279297,-1.873797059059143,0.16945531964302063,1.1247241497039795,0.5558532476425171,0.2476043850183487
1785712353636170,679622715,-0.4006369411945343,0.6430982351303101,0.2748135030269623,0.5919395685195923,9.697467803955078,-1.824661374092102,0.08835206925868988,2.000518560409546,2.1038784980773926,0.5784884691238403
1785712353637748,679639382,-0.4009084701538086,0.6429508924484253,0.2747608423233032,0.5919399261474609,9.690032958984375,-1.7936420440673828,0.17195284366607666,2.0548365116119385,1.1883972883224487,0.8743982911109924
1785712353638007,679656049,-0.4012068212032318,0.642735481262207,0.2746257483959198,0.5920348167419434,9.748387336730957,-1.7450257539749146,0.22414815425872803,1.8471431732177734,2.1613340377807617,0.9586513042449951
1785712353662231,679672716,-0.4014100730419159,0.6427251100540161,0.2745485007762909,0.5919439792633057,9.770631790161133,-1.775091290473938,0.2579176425933838,1.4491854906082153,0.16733413934707642,1.2153288125991821
1785712353663797,679689383,-0.40163397789001465,0.6426535844802856,0.27440205216407776,0.591937780380249,9.775510787963867,-1.765886902809143,0.16221848130226135,1.2673225402832031,1.019532561302185,1.256462812423706
1785712353692189,679706050,-0.4021393060684204,0.6421365737915039,0.27413949370384216,0.5922771692276001,9.746018409729004,-1.7953855991363525,0.08461422473192215,2.616266965866089,5.210872173309326,1.1200242042541504
1785712353694068,679722717,-0.4029126763343811,0.6412980556488037,0.2736705243587494,0.5928765535354614,9.741747856140137,-1.7858116626739502,0.19191378355026245,3.3569233417510986,8.743967056274414,1.7981723546981812
1785712353722718,679739384,-0.40372225642204285,0.6404818296432495,0.2730077803134918,0.5935133695602417,9.714127540588379,-1.799518346786499,0.3312692642211914,2.595085620880127,9.424073219299316,2.738196849822998
1785712353770953,679756051,-0.40452590584754944,0.6398335695266724,0.27241092920303345,0.5939395427703857,9.707687377929688,-1.8021812438964844,0.3229311406612396,2.767765998840332,7.616109371185303,3.324150562286377
1785712353772037,679772718,-0.40548646450042725,0.6391518115997314,0.27190518379211426,0.5942503213882446,9.754585266113281,-1.8829048871994019,0.23563900589942932,4.139032363891602,7.28632116317749,3.822279691696167
1785712353782562,679789385,-0.40664681792259216,0.6383889317512512,0.2713455259799957,0.5945330858230591,9.773839950561523,-1.9434484243392944,0.27452972531318665,5.076240062713623,8.018448829650879,4.802427768707275
1785712353784626,679806052,-0.4078822135925293,0.6376830339431763,0.27059635519981384,0.5947859883308411,9.773017883300781,-2.00634765625,0.4040680527687073,4.526796817779541,8.324189186096191,6.130434036254883
1785712353812257,679822719,-0.4092215299606323,0.6369285583496094,0.26957929134368896,0.5951361060142517,9.678691864013672,-2.001985788345337,0.41978564858436584,3.841811180114746,9.893365859985352,7.366876602172852
1785712353813932,679839386,-0.4106846749782562,0.6361132860183716,0.2684767246246338,0.5954985618591309,9.60078239440918,-1.9865936040878296,0.4282771944999695,4.182127475738525,10.666626930236816,8.1004638671875
1785712353842860,679856053,-0.4124166965484619,0.6351529955863953,0.2675517499446869,0.5957427620887756,9.565404891967773,-1.9846543073654175,0.4386734664440155,6.714533805847168,10.738163948059082,8.491057395935059
1785712353845277,679872720,-0.41439464688301086,0.6340026259422302,0.26688694953918457,0.5958938598632812,9.575458526611328,-1.9943886995315552,0.4938873052597046,9.563234329223633,10.825032234191895,8.27619457244873
1785712353901901,679889387,-0.4162859320640564,0.632930338382721,0.26618480682373047,0.5960292220115662,9.599015235900879,-2.039724349975586,0.6160660982131958,8.841890335083008,10.38303279876709,8.272697448730469
1785712353905437,679906054,-0.41802579164505005,0.6320322751998901,0.26541265845298767,0.5961089134216309,9.600350379943848,-2.0721702575683594,0.614044725894928,7.495248317718506,9.35046672821045,8.434684753417969
1785712353905950,679922721,-0.41977840662002563,0.6311482787132263,0.2645570635795593,0.596194326877594,9.57751750946045,-2.0455899238586426,0.5790932178497314,7.159042835235596,9.580917358398438,8.858945846557617
1785712353932212,679939388,-0.42165836691856384,0.6301998496055603,0.26372942328453064,0.5962374806404114,9.541726112365723,-2.010143280029297,0.5633386969566345,8.087697982788086,9.81233024597168,9.263949394226074
1785712353934115,679956055,-0.4235572814941406,0.6292499303817749,0.26290440559387207,0.5962594747543335,9.564458847045898,-2.030195713043213,0.6676551699638367,8.223713874816895,9.753805160522461,9.389142990112305
1785712353962789,679972722,-0.4252277612686157,0.6284787058830261,0.2618257701396942,0.5963584780693054,9.57087516784668,-2.068253517150879,0.713231086730957,5.536502838134766,9.680115699768066,9.649226188659668
1785712353964061,679989389,-0.4269073009490967,0.6278048753738403,0.2605822682380676,0.5964130163192749,9.511488914489746,-2.1297385692596436,0.7411261796951294,4.695906639099121,9.586553573608398,10.703933715820312
1785712353992226,680006056,-0.42865172028541565,0.6271356344223022,0.25931549072265625,0.5964177250862122,9.476303100585938,-2.1397993564605713,0.7665606737136841,4.957950115203857,9.536083221435547,11.225574493408203
1785712353994024,680022723,-0.43031442165374756,0.62643963098526,0.2580535411834717,0.5964994430541992,9.449302673339844,-2.153306722640991,0.8237264156341553,4.564949035644531,9.818706512451172,10.594656944274902
