host_t_us,sensor_t_us,qw,qx,qy,qz,ax,ay,az,gx,gy,gz
1785712344951454,395980859,-0.2616194486618042,-0.05661551281809807,0.28532105684280396,0.920295238494873,0.44856515526771545,5.756411552429199,8.498600006103516,-3.110008955001831,0.8936334848403931,-1.3396079540252686
1785712344952766,395997526,-0.26175135374069214,-0.05654410645365715,0.28507646918296814,0.9203380346298218,0.4890943169593811,5.702706813812256,8.450661659240723,-5.19529390335083,0.7999423742294312,-0.5803838968276978
1785712345014025,396014193,-0.2618558704853058,-0.05661232769489288,0.28504815697669983,0.9203128814697266,0.4446563124656677,5.637288570404053,8.457637786865234,-3.4322681427001953,1.2718818187713623,-0.8350763916969299
1785712345014321,396030860,-0.2618730664253235,-0.05676398426294327,0.28513631224632263,0.9202712178230286,0.4762001633644104,5.698757648468018,8.442343711853027,-2.4792580604553223,1.419808030128479,-1.4689394235610962
1785712345015561,396047527,-0.2619004547595978,-0.056922461837530136,0.28525254130363464,0.9202175736427307,0.46322834491729736,5.788568019866943,8.502409934997559,-2.2688498497009277,1.4421806335449219,-1.376042366027832
1785712345015828,396064194,-0.2619640827178955,-0.05697791650891304,0.2852582335472107,0.9201942086219788,0.45731082558631897,5.762974262237549,8.426362037658691,-3.2280964851379395,1.0476042032241821,-1.043422818183899
1785712345039818,396080861,-0.26200494170188904,-0.05698595568537712,0.28524041175842285,0.9201876521110535,0.43448108434677124,5.748486518859863,8.468367576599121,-3.486375331878662,0.7382668852806091,-1.1446059942245483
1785712345070785,396097528,-0.26202669739723206,-0.05693916603922844,0.28513360023498535,0.9202175736427307,0.44795525074005127,5.73761510848999,8.45843505859375,-4.2122650146484375,0.5037698149681091,-1.2565462589263916
1785712345072305,396114195,-0.26208314299583435,-0.056883443146944046,0.28508707880973816,0.9202193021774292,0.4542771279811859,5.747579097747803,8.480597496032715,-3.806124687194824,0.41301125288009644,-0.9512174129486084
1785712345099941,396130862,-0.2621610760688782,-0.0567934513092041,0.28491508960723877,0.9202558994293213,0.49362754821777344,5.679707050323486,8.47757339477539,-4.738528251647949,0.4483310580253601,-0.8611501455307007
1785712345101746,396147529,-0.2622520327568054,-0.05681491643190384,0.28490200638771057,0.9202327728271484,0.4816358983516693,5.631351947784424,8.491463661193848,-3.4203970432281494,0.9234082698822021,-0.8218987584114075
1785712345148713,396164196,-0.26228857040405273,-0.05697917193174362,0.284950852394104,0.920197069644928,0.45591625571250916,5.639981269836426,8.482370376586914,-2.72542142868042,1.6034510135650635,-1.4037423133850098
1785712345149231,396180863,-0.26230400800704956,-0.0571325346827507,0.28506478667259216,0.9201479554176331,0.42816856503486633,5.737304210662842,8.48622989654541,-2.297382354736328,1.3807616233825684,-1.4660582542419434
1785712345160173,396197530,-0.2623480558395386,-0.05712040513753891,0.28498852252960205,0.920159637928009,0.45112377405166626,5.727165699005127,8.469629287719727,-3.929410457611084,0.7345529794692993,-1.1075955629348755
1785712345161988,396214197,-0.26240286231040955,-0.057136427611112595,0.2849680781364441,0.9201493859291077,0.4596157371997833,5.690577030181885,8.467119216918945,-3.486964464187622,0.8329826593399048,-1.0474313497543335
1785712345190159,396230864,-0.26245132088661194,-0.05710441246628761,0.2848782539367676,0.9201653003692627,0.4549061954021454,5.6932268142700195,8.484045028686523,-4.062340259552002,0.6208710074424744,-1.0821237564086914
1785712345221231,396247531,-0.2624759078025818,-0.057112522423267365,0.2848462760448456,0.9201676845550537,0.44585129618644714,5.66681432723999,8.453622817993164,-3.586585283279419,0.7451695799827576,-1.2385534048080444
1785712345222208,396264198,-0.26246893405914307,-0.0571548156440258,0.28488287329673767,0.9201557040214539,0.46270862221717834,5.723994731903076,8.470574378967285,-3.0522141456604004,0.7676830291748047,-1.4830265045166016
1785712345279095,396280865,-0.26252827048301697,-0.057187940925359726,0.28484058380126953,0.9201497435569763,0.5424526333808899,5.71752405166626,8.459750175476074,-3.6076128482818604,0.9401462078094482,-1.1403158903121948
1785712345280057,396297532,-0.262572318315506,-0.05733173340559006,0.28488415479660034,0.9201148748397827,0.4961044490337372,5.678127288818359,8.42464542388916,-2.8005309104919434,1.4979139566421509,-1.3189258575439453
1785712345283333,396314199,-0.26257866621017456,-0.057558003813028336,0.2851133942604065,0.9200279116630554,0.43085283041000366,5.7525835037231445,8.43313217163086,-1.3597270250320435,1.6455328464508057,-1.5440360307693481
1785712345283810,396330866,-0.26259645819664,-0.057630762457847595,0.285186231136322,0.9199957251548767,0.41104960441589355,5.824410915374756,8.48657512664795,-2.7384328842163086,0.9445385336875916,-1.339083194732666
1785712345309873,396347533,-0.2626365125179291,-0.05759848654270172,0.28506574034690857,0.9200236201286316,0.42626091837882996,5.7189226150512695,8.421913146972656,-4.277730941772461,0.6583552956581116,-1.1645838022232056
1785712345311774,396364200,-0.26266881823539734,-0.05752163380384445,0.28497299551963806,0.9200479388237,0.45786812901496887,5.72272253036499,8.509809494018555,-4.171233177185059,0.3338935971260071,-1.0813554525375366
1785712345339795,396380867,-0.2627628743648529,-0.05736016854643822,0.28473544120788574,0.9201048016548157,0.5020225048065186,5.686222076416016,8.512543678283691,-5.329708576202393,0.13830217719078064,-0.6771742701530457
1785712345371012,396397534,-0.26285141706466675,-0.05729411914944649,0.28454017639160156,0.9201439619064331,0.49487850069999695,5.580698013305664,8.442766189575195,-4.852504730224609,0.6678575277328491,-0.8494707345962524
1785712345372066,396414201,-0.2628425657749176,-0.057442862540483475,0.2846769392490387,0.920094907283783,0.4451296627521515,5.653806209564209,8.485039710998535,-2.153733491897583,1.2730600833892822,-1.591598629951477
1785712345415461,396430868,-0.2628977298736572,-0.05753045901656151,0.2847059965133667,0.9200646877288818,0.46297645568847656,5.740384101867676,8.493364334106445,-3.007456064224243,1.191163420677185,-1.156451940536499
1785712345415756,396447535,-0.26302504539489746,-0.057691097259521484,0.2846830487251282,0.9200254082679749,0.39228132367134094,5.672041416168213,8.394553184509277,-3.2162892818450928,1.8916964530944824,-0.8514686226844788
1785712345430518,396464202,-0.26309263706207275,-0.05783917382359505,0.28484681248664856,0.9199461340904236,0.38293758034706116,5.7427873611450195,8.45859146118164,-1.9556832313537598,1.3691076040267944,-1.0523360967636108
1785712345459893,396480869,-0.26315370202064514,-0.05785195529460907,0.28481122851371765,0.9199387431144714,0.4947861433029175,5.798064231872559,8.428940773010254,-3.5994298458099365,0.8353903293609619,-1.044460415840149
1785712345461826,396497536,-0.2632412612438202,-0.05781513452529907,0.28469669818878174,0.9199514985084534,0.5136905908584595,5.768250465393066,8.431114196777344,-4.237634181976318,0.7160478234291077,-0.8278665542602539
1785712345463087,396514203,-0.26330724358558655,-0.057716403156518936,0.28444525599479675,0.9200165867805481,0.4935222864151001,5.710601806640625,8.433505058288574,-5.310141086578369,0.5142198204994202,-0.9852439165115356
1785712345490012,396530870,-0.2633398473262787,-0.057716254144907,0.28438708186149597,0.9200252294540405,0.4199061393737793,5.726221084594727,8.47878646850586,-3.786825656890869,0.7373577356338501,-1.228987216949463
1785712345549930,396547537,-0.26335594058036804,-0.057593319565057755,0.28424200415611267,0.9200731515884399,0.3906126916408539,5.728038787841797,8.506711959838867,-4.627984523773193,0.07783059775829315,-1.1763274669647217
1785712345550745,396564204,-0.2633754312992096,-0.05743071809411049,0.28411856293678284,0.9201158881187439,0.4055429995059967,5.697568893432617,8.486927032470703,-4.55392599105835,-0.19660310447216034,-1.0532968044281006
1785712345554802,396580871,-0.2634313702583313,-0.05725819244980812,0.2839232385158539,0.9201709032058716,0.47233349084854126,5.660499095916748,8.504876136779785,-5.066614627838135,-0.09772525727748871,-0.904474139213562
1785712345555079,396597538,-0.26349368691444397,-0.057147152721881866,0.28376829624176025,0.9202077388763428,0.5148164629936218,5.6332244873046875,8.50442123413086,-4.667569637298584,0.23531028628349304,-0.9427523612976074
1785712345581031,396614205,-0.26354464888572693,-0.05715155601501465,0.28368011116981506,0.920220136642456,0.5258110761642456,5.595942497253418,8.478499412536621,-3.9844014644622803,0.8232754468917847,-1.1848435401916504
1785712345582198,396630872,-0.2635449171066284,-0.05731303244829178,0.28383010625839233,0.9201638102531433,0.4780467748641968,5.663357257843018,8.483447074890137,-2.037912607192993,1.3328272104263306,-1.5628869533538818
1785712345610811,396647539,-0.26358020305633545,-0.05743803828954697,0.28387969732284546,0.9201304316520691,0.4424953758716583,5.724318504333496,8.500473022460938,-2.7972397804260254,1.3579789400100708,-1.332039713859558
1785712345611651,396664206,-0.2636086046695709,-0.05750419571995735,0.28383970260620117,0.9201305508613586,0.4367193281650543,5.716829299926758,8.442517280578613,-3.5317227840423584,1.1300004720687866,-1.3454225063323975
1785712345639834,396680873,-0.2636270225048065,-0.05754635110497475,0.2838760018348694,0.9201114177703857,0.4462289810180664,5.713613510131836,8.462214469909668,-3.0519070625305176,0.8288462162017822,-1.3056970834732056
1785712345680537,396697540,-0.2636546790599823,-0.05757855623960495,0.28390467166900635,0.9200927019119263,0.4552377462387085,5.7397894859313965,8.453570365905762,-3.12626051902771,0.7451310157775879,-1.3111653327941895
1785712345681300,396714207,-0.26369526982307434,-0.057538826018571854,0.28382059931755066,0.9201095700263977,0.48086240887641907,5.7333526611328125,8.489858627319336,-4.0421576499938965,0.5374632477760315,-1.1356030702590942
1785712345700349,396730874,-0.26377207040786743,-0.057461321353912354,0.2836896777153015,0.9201326370239258,0.4932476878166199,5.690552234649658,8.476322174072266,-4.433417797088623,0.4600745141506195,-0.8521474003791809
1785712345702432,396747541,-0.2638451159000397,-0.0574580579996109,0.2836146950721741,0.9201350212097168,0.47381943464279175,5.647634506225586,8.49711799621582,-3.9026451110839844,0.8301395773887634,-0.9628325700759888
1785712345730334,396764208,-0.2638971209526062,-0.05750913918018341,0.2836143970489502,0.9201170802116394,0.46248185634613037,5.632040977478027,8.486688613891602,-3.282536506652832,1.0232850313186646,-1.0944050550460815
1785712345731280,396780875,-0.2639002799987793,-0.05760698765516281,0.2836557626724243,0.920097291469574,0.4526565670967102,5.6461687088012695,8.463890075683594,-2.911036729812622,1.14435613155365,-1.4900442361831665
1785712345762098,396797542,-0.2638973891735077,-0.05773650109767914,0.28378042578697205,0.9200515747070312,0.46822988986968994,5.698707103729248,8.495427131652832,-2.274318218231201,1.1936991214752197,-1.5147734880447388
1785712345762756,396814209,-0.26391637325286865,-0.05779707059264183,0.28375717997550964,0.9200493693351746,0.4601761996746063,5.715801239013672,8.508283615112305,-3.426966905593872,1.0622164011001587,-1.3454481363296509
1785712345813050,396830876,-0.26395657658576965,-0.05783625319600105,0.2837492823600769,0.9200378656387329,0.44618552923202515,5.7175612449646,8.48773193359375,-3.3536627292633057,1.0366419553756714,-1.0225486755371094
1785712345820322,396847543,-0.2639722526073456,-0.05786633491516113,0.28375163674354553,0.9200307726860046,0.41869214177131653,5.689344882965088,8.455355644226074,-3.3095574378967285,0.8292302489280701,-1.2950676679611206
1785712345821993,396864210,-0.26394543051719666,-0.057935718446969986,0.28382277488708496,0.9200121164321899,0.4864542484283447,5.720216274261475,8.440177917480469,-2.7659153938293457,0.8431252837181091,-1.6238707304000854
1785712345851003,396880877,-0.26396772265434265,-0.05802736431360245,0.2839207947254181,0.9199697375297546,0.5081510543823242,5.728496074676514,8.44576358795166,-2.5295231342315674,1.0385630130767822,-1.325354814529419
1785712345851872,396897544,-0.26401060819625854,-0.05812062323093414,0.2839674651622772,0.9199371337890625,0.4865880012512207,5.739877223968506,8.479148864746094,-2.880685567855835,1.1379145383834839,-1.2773308753967285
1785712345881068,396914211,-0.2640652358531952,-0.058152928948402405,0.2839023470878601,0.9199395179748535,0.4531744718551636,5.7056989669799805,8.490880012512207,-3.7688710689544678,1.0126429796218872,-1.129686713218689
1785712345882298,396930878,-0.26411259174346924,-0.05819486081600189,0.28390374779701233,0.9199228286743164,0.4072518050670624,5.694817066192627,8.472396850585938,-3.2905402183532715,0.9462035894393921,-1.1342583894729614
1785712345910981,396947545,-0.26413267850875854,-0.05819666385650635,0.28384071588516235,0.9199364185333252,0.4119167625904083,5.691619873046875,8.477555274963379,-3.820274591445923,0.7281754612922668,-1.3233824968338013
1785712345912118,396964212,-0.26412147283554077,-0.05821226164698601,0.2839147746562958,0.9199157357215881,0.430894672870636,5.7641682624816895,8.463133811950684,-2.850834608078003,0.49080976843833923,-1.4777247905731201
1785712345943372,396980879,-0.26410573720932007,-0.057992056012153625,0.28363946080207825,0.9200191497802734,0.489523321390152,5.709096431732178,8.513680458068848,-5.72405481338501,-0.3415965735912323,-1.2879091501235962
1785712345971260,396997546,-0.2641674876213074,-0.0578942708671093,0.28356659412384033,0.9200300574302673,0.472196489572525,5.650886058807373,8.462018966674805,-4.074032783508301,0.20686735212802887,-0.8601512312889099
1785712345972916,397014213,-0.26417240500450134,-0.05784621089696884,0.28349608182907104,0.9200533628463745,0.45101720094680786,5.621163845062256,8.454122543334961,-3.967867851257324,0.44042953848838806,-1.2842079401016235
1785712346000000,397030880,-0.2641373574733734,-0.057949941605329514,0.28362277150154114,0.9200178384780884,0.469829261302948,5.7101006507873535,8.519437789916992,-2.3167455196380615,0.960828423500061,-1.6844449043273926
1785712346001895,397047547,-0.26415523886680603,-0.05795205757021904,0.28356435894966125,0.9200305938720703,0.506043016910553,5.692246913909912,8.506209373474121,-3.7880542278289795,0.7214521169662476,-1.3284538984298706
1785712346029870,397064214,-0.26416251063346863,-0.05810847133398056,0.2836821675300598,0.919982373714447,0.4397282600402832,5.657463550567627,8.425793647766113,-2.263484239578247,1.473543405532837,-1.3866972923278809
1785712346031310,397080881,-0.26418760418891907,-0.05822426453232765,0.2837882936000824,0.9199351072311401,0.41780227422714233,5.762453556060791,8.507668495178223,-2.4263548851013184,1.1948131322860718,-1.3250857591629028
1785712346076329,397097548,-0.2642962634563446,-0.058178745210170746,0.2836756110191345,0.9199414849281311,0.4728148281574249,5.746574878692627,8.45815658569336,-4.238210678100586,0.7433509826660156,-0.6076869368553162
1785712346076589,397114215,-0.264399915933609,-0.05813967436552048,0.28356388211250305,0.9199486970901489,0.430370956659317,5.680214881896973,8.466117858886719,-4.221587657928467,0.7699753642082214,-0.6723973155021667
1785712346089875,397130882,-0.264483779668808,-0.05807231366634369,0.2834397554397583,0.919966995716095,0.4486110806465149,5.664774417877197,8.496509552001953,-4.366427898406982,0.5499110817909241,-0.7782931327819824
1785712346120133,397147549,-0.26451557874679565,-0.05809532850980759,0.2834163010120392,0.9199635982513428,0.47257524728775024,5.670063495635986,8.47622013092041,-3.4961721897125244,0.9280697703361511,-1.0884885787963867
1785712346121268,397164216,-0.26454517245292664,-0.058140117675065994,0.2834455370903015,0.9199433326721191,0.4929438829421997,5.657036304473877,8.477303504943848,-3.096511125564575,0.88026362657547,-1.2353004217147827
1785712346150480,397180883,-0.2645653784275055,-0.058321792632341385,0.28357863426208496,0.919884979724884,0.48550891876220703,5.682149887084961,8.468064308166504,-2.1183111667633057,1.46922767162323,-1.5690852403640747
1785712346151324,397197550,-0.2645772099494934,-0.05846792832016945,0.2836834192276001,0.9198400378227234,0.4640982747077942,5.7112956047058105,8.474035263061523,-2.3758597373962402,1.403070092201233,-1.3991321325302124
1785712346208707,397214217,-0.2646099328994751,-0.058588918298482895,0.2836965024471283,0.9198188781738281,0.42209121584892273,5.740224361419678,8.471709251403809,-3.0565173625946045,1.4444730281829834,-1.3003568649291992
1785712346209453,397230884,-0.2646837532520294,-0.05867009609937668,0.2837539613246918,0.9197746515274048,0.38449734449386597,5.758372783660889,8.45919418334961,-2.824517250061035,1.1349947452545166,-1.0050039291381836
1785712346213683,397247551,-0.2647680640220642,-0.05858861654996872,0.28361085057258606,0.9197998046875,0.4252845346927643,5.711884498596191,8.482877731323242,-4.526878833770752,0.4901055097579956,-0.7827369570732117
1785712346214281,397264218,-0.2648312449455261,-0.058581285178661346,0.28361913561820984,0.9197794795036316,0.46852827072143555,5.683409214019775,8.478031158447266,-3.337219476699829,0.6655651926994324,-0.9034623503684998
1785712346239831,397280885,-0.26488614082336426,-0.05856172740459442,0.28346166014671326,0.9198135733604431,0.5472623109817505,5.606986045837402,8.495185852050781,-4.511293888092041,0.8335462808609009,-1.125563144683838
1785712346270114,397297552,-0.264906644821167,-0.05877912789583206,0.28358936309814453,0.9197543263435364,0.6213123798370361,5.626016139984131,8.434924125671387,-2.0804812908172607,1.7884262800216675,-1.5302821397781372
1785712346271442,397314219,-0.26492947340011597,-0.059177033603191376,0.28387200832366943,0.9196350574493408,0.5823068022727966,5.717165470123291,8.48848819732666,-0.6558643579483032,2.6736648082733154,-1.6829975843429565
1785712346300034,397330886,-0.26497069001197815,-0.05953708291053772,0.28401294350624084,0.9195565581321716,0.363029807806015,5.707882881164551,8.45093822479248,-1.7080214023590088,2.705091714859009,-1.6303253173828125
1785712346301809,397347553,-0.26490581035614014,-0.05985789746046066,0.28436997532844543,0.9194439649581909,0.19359923899173737,5.697670936584473,8.446175575256348,-0.3030622601509094,1.884652853012085,-2.0724003314971924
1785712346343667,397364220,-0.2647499442100525,-0.06001283600926399,0.2846468985080719,0.9193931221961975,0.2592954635620117,5.839480400085449,8.464799880981445,-1.1985591650009155,0.7226815819740295,-2.5404083728790283
1785712346344366,397380887,-0.2646912634372711,-0.05987407639622688,0.28458887338638306,0.9194368720054626,0.3943570852279663,5.918597221374512,8.399657249450684,-4.070664882659912,-0.29125481843948364,-1.545931339263916
1785712346360500,397397554,-0.2647535502910614,-0.059605974704027176,0.28432223200798035,0.9195189476013184,0.46963930130004883,5.890536308288574,8.42811393737793,-5.754239559173584,-0.5701771974563599,-0.7757319211959839
1785712346361474,397414221,-0.2648423910140991,-0.0591852180659771,0.28383198380470276,0.9196720719337463,0.4892573058605194,5.65924596786499,8.498205184936523,-7.592501640319824,-1.0694072246551514,-0.45671287178993225
1785712346389863,397430888,-0.26479360461235046,-0.05913367122411728,0.2838762700557709,0.9196756482124329,0.4268980324268341,5.438753604888916,8.338396072387695,-3.193225145339966,0.07466743141412735,-1.5787158012390137
1785712346420423,397447555,-0.2645408511161804,-0.05968043580651283,0.28474006056785583,0.9194461107254028,0.39117661118507385,5.594912528991699,8.47269058227539,3.6095664501190186,1.9680482149124146,-3.4254937171936035
1785712346422488,397464222,-0.2643934190273285,-0.060005344450473785,0.2852511405944824,0.9193089008331299,0.45812031626701355,5.926723957061768,8.582859992980957,0.7572202086448669,1.4575610160827637,-2.525514602661133
1785712346475551,397480889,-0.26449793577194214,-0.059842463582754135,0.2849360406398773,0.9193872809410095,0.46911880373954773,5.892309665679932,8.431771278381348,-5.871840476989746,0.3617730438709259,-0.5760809183120728
1785712346475920,397497556,-0.2645960748195648,-0.059715285897254944,0.2847057580947876,0.9194384813308716,0.3673519790172577,5.800830364227295,8.403190612792969,-5.220663070678711,0.36193951964378357,-0.712801456451416
1785712346480702,397514223,-0.264590859413147,-0.05946474149823189,0.2846069931983948,0.9194868206977844,0.3784433603286743,5.740517616271973,8.385045051574707,-4.56406831741333,-0.8392130136489868,-1.0459073781967163
1785712346481665,397530890,-0.2645367980003357,-0.05940098688006401,0.2850259244441986,0.9193768501281738,0.4147627055644989,5.699153900146484,8.365071296691895,-0.6227215528488159,-0.6349387764930725,-1.2204707860946655
1785712346510714,397547557,-0.26451563835144043,-0.05959964171051979,0.28606098890304565,0.9190484285354614,0.3642924427986145,5.7520623207092285,8.3392972946167,4.1601104736328125,-0.00395716167986393,-0.9658676385879517
1785712346511607,397564224,-0.26461416482925415,-0.05980649217963219,0.28737419843673706,0.9185967445373535,0.28508082032203674,5.993826866149902,8.391375541687012,6.11556339263916,-0.32206687331199646,-0.10736843198537827
1785712346539879,397580891,-0.2647237777709961,-0.05956089496612549,0.2884830832481384,0.9182336330413818,0.23397018015384674,6.062948226928711,8.271797180175781,3.869560480117798,-2.113701105117798,1.6521282196044922
1785712346570637,397597558,-0.2655480206012726,-0.058822229504585266,0.29009467363357544,0.9175352454185486,0.5650427341461182,6.196250915527344,8.157991409301758,6.484043598175049,-5.077758312225342,7.237967014312744
1785712346573692,397614225,-0.2674669623374939,-0.058595143258571625,0.29270097613334656,0.9161635637283325,0.5135601162910461,6.048791408538818,7.892977714538574,14.596785545349121,-1.1540461778640747,14.834650039672852
1785712346608196,397630892,-0.26916900277137756,-0.05857950448989868,0.2958591878414154,0.9146503806114197,0.2817394435405731,6.508066177368164,8.206089973449707,18.814388275146484,-1.46434485912323,13.171746253967285
1785712346608450,397647559,-0.2696225941181183,-0.05779832974076271,0.29769283533096313,0.9139713048934937,0.3022392690181732,6.716004371643066,8.480283737182617,7.892473220825195,-6.457514762878418,5.153066158294678
1785712346630065,397664226,-0.2686384916305542,-0.05525733903050423,0.2969115376472473,0.9146721363067627,0.5904741883277893,6.528884410858154,8.499308586120605,-14.065185546875,-16.280920028686523,-4.05737829208374
1785712346631319,397680893,-0.26787227392196655,-0.05219632759690285,0.2949488162994385,0.9157110452651978,0.64131098985672,5.905450820922852,7.737218856811523,-23.228351593017578,-17.030942916870117,-2.6658926010131836
1785712346659938,397697560,-0.2672653794288635,-0.049967601895332336,0.2957620322704315,0.9157503247261047,0.5900595784187317,5.876013278961182,8.146484375,-2.251230239868164,-16.241104125976562,-0.5425927042961121
1785712346661627,397714227,-0.2669984996318817,-0.04659368470311165,0.29557690024375916,0.9160659313201904,0.5735395550727844,6.045530319213867,8.580559730529785,-11.313114166259766,-20.962024688720703,3.1768581867218018
1785712346689881,397730894,-0.26675623655319214,-0.04228990897536278,0.2953595519065857,0.9164152145385742,0.5309332609176636,5.657809734344482,8.572595596313477,-13.299576759338379,-26.717409133911133,5.148431777954102
1785712346739321,397747561,-0.26610562205314636,-0.038120072335004807,0.29680436849594116,0.9163205027580261,0.6584771871566772,5.155491352081299,8.551518440246582,-1.5649793148040771,-29.65799903869629,3.5444693565368652
1785712346739593,397764228,-0.26480966806411743,-0.03536231443285942,0.3006017804145813,0.9155683517456055,1.1772608757019043,4.80391263961792,8.867955207824707,17.35675811767578,-26.175207138061523,-1.5337835550308228
1785712346750235,397780895,-0.26286324858665466,-0.03513573110103607,0.3083961606025696,0.9135435223579407,1.6111929416656494,5.087204933166504,8.408963203430176,49.91624069213867,-18.56313133239746,-7.583112716674805
1785712346751966,397797562,-0.26106026768684387,-0.0373084656894207,0.31888076663017273,0.9103692173957825,1.8433977365493774,6.108476638793945,9.03195571899414,73.552001953125,-7.780675888061523,-9.052473068237305
1785712346780371,397814229,-0.2594531178474426,-0.039103101938962936,0.327187716960907,0.9078022837638855,1.5267935991287231,6.789102554321289,9.617297172546387,57.86258316040039,-5.95826530456543,-8.64271354675293
1785712346781595,397830896,-0.2579990029335022,-0.039386384189128876,0.33257928490638733,0.906243622303009,1.6009998321533203,6.2950592041015625,8.777856826782227,34.66099548339844,-10.118395805358887,-6.871471881866455
1785712346810164,397847563,-0.2566302418708801,-0.03855642303824425,0.3402114510536194,0.9038317799568176,3.791365146636963,4.915606498718262,6.894700527191162,48.57553482055664,-20.600671768188477,-1.6640090942382812
1785712346811509,397864230,-0.2574908435344696,-0.04697383940219879,0.3539832830429077,0.8978806138038635,2.4250950813293457,7.009072780609131,7.513795375823975,110.73992156982422,32.19774627685547,-1.5663799047470093
1785712346869142,397880897,-0.2574003040790558,-0.04640689119696617,0.3628990650177002,0.8943697214126587,2.866028070449829,9.148320198059082,9.907768249511719,59.21944046020508,-17.771026611328125,8.53272533416748
1785712346873778,397897564,-0.2617141008377075,-0.0450277216732502,0.36599209904670715,0.8919244408607483,2.2489688396453857,7.96010684967041,7.4196085929870605,17.91386604309082,-1.8126585483551025,33.908966064453125
1785712346874283,397914231,-0.26510000228881836,-0.04268454760313034,0.3718331754207611,0.888617753982544,1.8452448844909668,6.9076385498046875,7.68649435043335,35.483062744140625,-14.740678787231445,33.027462005615234
1785712346900530,397930898,-0.2672893702983856,-0.04093678668141365,0.3766724467277527,0.8860021233558655,2.688345432281494,7.378121376037598,7.567317962646484,29.03500747680664,-12.530569076538086,22.652753829956055
1785712346901435,397947565,-0.27037230134010315,-0.03975073620676994,0.3802903890609741,0.8835719227790833,2.0331573486328125,7.773828983306885,7.27133846282959,21.89514923095703,-4.5910820960998535,25.957366943359375
1785712346930172,397964232,-0.27347609400749207,-0.03739778697490692,0.38250264525413513,0.8817627429962158,1.2138751745224,7.622137546539307,7.293671131134033,9.556892395019531,-9.177906036376953,27.59647560119629
1785712346932079,397980899,-0.2755011320114136,-0.034013956785202026,0.3853047490119934,0.8800477385520935,1.2866106033325195,7.161718845367432,6.957122325897217,11.22445297241211,-19.402061462402344,23.74593162536621
1785712346960155,397997566,-0.2766910195350647,-0.03112088516354561,0.38914158940315247,0.878091037273407,1.9426435232162476,6.99863338470459,6.998729228973389,19.250381469726562,-20.54538345336914,18.09471893310547
1785712346961854,398014233,-0.2780192494392395,-0.02905975840985775,0.39350470900535583,0.8757947087287903,1.9786561727523804,7.201821804046631,7.022129058837891,24.89122200012207,-16.0858154296875,17.465301513671875
1785712347003985,398030900,-0.27938735485076904,-0.02679460123181343,0.3976762294769287,0.8735443949699402,1.6831845045089722,7.564539909362793,7.163350582122803,23.214094161987305,-16.843427658081055,18.127426147460938
1785712347019698,398047567,-0.2806258499622345,-0.023866670206189156,0.401082843542099,0.8716729283332825,1.9472496509552002,7.553499221801758,7.163050174713135,16.33660125732422,-19.778783798217773,18.289216995239258
1785712347021216,398064234,-0.2821352481842041,-0.021007433533668518,0.40399664640426636,0.869911789894104,2.717046022415161,7.349897861480713,7.194981098175049,13.166842460632324,-17.690717697143555,19.435686111450195
1785712347049980,398080901,-0.28421521186828613,-0.019051745533943176,0.4069328308105469,0.8679088950157166,3.046241521835327,7.3516459465026855,7.074563503265381,15.642303466796875,-10.708123207092285,20.80337905883789
1785712347051360,398097568,-0.28666868805885315,-0.01759256422519684,0.41001325845718384,0.8656802177429199,3.020881414413452,7.48033332824707,7.121777057647705,18.05785369873047,-6.9444427490234375,22.11412239074707
1785712347079840,398114235,-0.2896256744861603,-0.01645217277109623,0.4128963351249695,0.8633448481559753,2.885216236114502,7.499885559082031,7.0010294914245605,17.75166130065918,-3.225404739379883,24.398204803466797
1785712347081480,398130902,-0.29302188754081726,-0.015798404812812805,0.415852427482605,0.8607885837554932,2.929706573486328,7.393354892730713,6.967855930328369,19.731822967529297,0.7955270409584045,26.06555938720703
1785712347109956,398147569,-0.29692763090133667,-0.01558629609644413,0.41877585649490356,0.8580324053764343,3.053281307220459,7.408162593841553,6.9118218421936035,20.94648551940918,4.948619365692139,28.21651840209961
1785712347111236,398164236,-0.3013138771057129,-0.015780963003635406,0.4214829206466675,0.8551692962646484,3.302414894104004,7.707394599914551,6.887121200561523,20.75702476501465,9.182230949401855,30.080463409423828
1785712347158491,398180903,-0.306141197681427,-0.01605980470776558,0.4235181212425232,0.8524397015571594,3.649641275405884,8.0482816696167,7.170246601104736,16.54698371887207,12.347311973571777,32.0823974609375
1785712347170121,398197570,-0.31198549270629883,-0.015871476382017136,0.4237784147262573,0.8501920104026794,3.8195137977600098,7.949066162109375,7.146734714508057,3.64630389213562,16.247404098510742,38.18352508544922
1785712347171571,398214237,-0.31921932101249695,-0.015987973660230637,0.4230126440525055,0.8478827476501465,3.621129035949707,7.51524019241333,6.9187517166137695,-1.6701043844223022,24.286487579345703,45.435935974121094
1785712347200214,398230904,-0.32750120759010315,-0.01633305847644806,0.4221296012401581,0.8451533913612366,3.238093376159668,7.334556579589844,6.730695724487305,-0.7414969205856323,28.9714298248291,51.79160690307617
1785712347201491,398247571,-0.33618223667144775,-0.01720239594578743,0.42197278141975403,0.8417993187904358,3.1119558811187744,7.506862640380859,6.707990646362305,6.428717613220215,31.612503051757812,54.077396392822266
1785712347230787,398264238,-0.3452126383781433,-0.018422570079565048,0.4212854206562042,0.8384564518928528,3.3129916191101074,7.903743743896484,6.987575054168701,4.097678184509277,35.88576126098633,54.998863220214844
1785712347231596,398280905,-0.3551291525363922,-0.01911185495555401,0.4187275469303131,0.8355758190155029,3.4025089740753174,8.002768516540527,7.1453728675842285,-9.398306846618652,39.77375411987305,60.30756759643555
1785712347260172,398297572,-0.3660491704940796,-0.019291836768388748,0.41491052508354187,0.832758367061615,3.2478020191192627,7.575396537780762,6.955007076263428,-18.186494827270508,42.80659103393555,67.2232894897461
1785712347261426,398314239,-0.37770959734916687,-0.019575810059905052,0.41078469157218933,0.829584002494812,3.154177665710449,7.212121486663818,7.040128231048584,-18.77459144592285,46.335235595703125,72.01702880859375
1785712347315000,398330906,-0.3895561099052429,-0.021107381209731102,0.4078501760959625,0.8255060911178589,3.43489146232605,6.923068046569824,6.88016939163208,-6.208600044250488,51.007789611816406,72.06336975097656
1785712347320588,398347573,-0.40161359310150146,-0.02501567080616951,0.4057830572128296,0.8206232190132141,3.997810125350952,7.525191783905029,6.9861226081848145,7.3064069747924805,62.88471984863281,68.87772369384766
1785712347322004,398364240,-0.41423970460891724,-0.030982857570052147,0.40365225076675415,0.8151758909225464,3.7533137798309326,8.457159996032715,6.678638458251953,14.109739303588867,76.35675811767578,67.89153289794922
1785712347350017,398380907,-0.4264321029186249,-0.03693573921918869,0.39950796961784363,0.8106701970100403,3.0071380138397217,9.288430213928223,7.415108680725098,0.2671694755554199,80.61127471923828,62.398231506347656
1785712347351945,398397574,-0.43842849135398865,-0.039996616542339325,0.39092767238616943,0.8083054423332214,2.731902837753296,8.484764099121094,7.670691967010498,-38.76860809326172,76.42314147949219,61.841796875
1785712347380353,398414241,-0.45086896419525146,-0.04169369116425514,0.3800186812877655,0.8065768480300903,2.7943673133850098,6.841731071472168,7.117304801940918,-57.65727996826172,76.8798599243164,65.42337036132812
1785712347382237,398430908,-0.4640384614467621,-0.04332452267408371,0.3696703314781189,0.8038261532783508,2.749232053756714,5.42070198059082,6.666121006011963,-52.289058685302734,76.97181701660156,72.97224426269531
1785712347410179,398447575,-0.4775709807872772,-0.04506757855415344,0.36203277111053467,0.7992675304412842,2.487088203430176,4.893121242523193,6.595979690551758,-32.4632568359375,70.40165710449219,81.26875305175781
1785712347413272,398464242,-0.49124062061309814,-0.047054145485162735,0.356136292219162,0.79349684715271,2.4653847217559814,5.436863899230957,7.259908199310303,-19.118986129760742,66.74388122558594,85.92940521240234
1785712347471107,398480909,-0.5049874782562256,-0.04862786829471588,0.34957408905029297,0.7876690626144409,2.2383041381835938,6.221772193908691,7.760918140411377,-24.02926254272461,66.94550323486328,87.34856414794922
1785712347473885,398497576,-0.5190948247909546,-0.04752790555357933,0.3398384749889374,0.7828109264373779,2.1490349769592285,6.3248419761657715,8.265329360961914,-52.95058059692383,64.02103424072266,91.29589080810547
1785712347475004,398514243,-0.5346060395240784,-0.04288210719823837,0.3262699544429779,0.778400182723999,2.2845394611358643,5.4978203773498535,7.80217981338501,-87.74095153808594,61.744991302490234,104.2872314453125
1785712347500165,398530910,-0.5513539910316467,-0.03703960403800011,0.3117259740829468,0.7729588150978088,2.195028066635132,4.130363464355469,7.134696006774902,-95.41350555419922,62.00305938720703,117.09911346435547
1785712347501820,398547577,-0.5681694149971008,-0.030670730397105217,0.29926660656929016,0.7659527659416199,2.0275826454162598,3.0767014026641846,6.8231611251831055,-82.992431640625,51.842342376708984,125.0466537475586
1785712347530385,398564244,-0.5843180418014526,-0.025440093129873276,0.29048770666122437,0.7573265433311462,2.164782762527466,2.790353536605835,6.843899250030518,-55.68529510498047,42.42587661743164,126.29324340820312
1785712347531818,398580911,-0.5999224185943604,-0.02153552509844303,0.28414368629455566,0.7475915551185608,2.5533440113067627,3.4222612380981445,7.314883708953857,-35.3682861328125,38.648170471191406,125.68766784667969
1785712347560440,398597578,-0.6153928637504578,-0.017695488408207893,0.27757179737091064,0.7375187277793884,2.9914302825927734,4.101320266723633,7.965724468231201,-35.58778381347656,39.709537506103516,126.23953247070312
1785712347589681,398614245,-0.6311914324760437,-0.012901674956083298,0.26923197507858276,0.7272871732711792,3.3297455310821533,4.010331630706787,8.284411430358887,-48.324005126953125,43.00336837768555,130.18524169921875
1785712347591482,398630912,-0.6473525762557983,-0.007307133637368679,0.2605002224445343,0.7162557244300842,3.3980181217193604,3.367173433303833,8.110430717468262,-52.31211853027344,41.43342590332031,136.91175842285156
1785712347627765,398647579,-0.6635101437568665,-0.0024107107892632484,0.2518707513809204,0.7044934034347534,3.260100841522217,3.057912826538086,8.127185821533203,-47.391212463378906,44.444580078125,138.89932250976562
1785712347628021,398664246,-0.6793989539146423,0.0015316455392166972,0.2443457394838333,0.691889762878418,3.0414185523986816,3.068464756011963,7.997534275054932,-36.22543716430664,43.58034896850586,139.80917358398438
1785712347650584,398680913,-0.6944153904914856,0.004821309354156256,0.23733392357826233,0.6792924404144287,2.9871985912323,3.2510757446289062,8.602928161621094,-30.75327491760254,42.816402435302734,134.5157012939453
1785712347651816,398697580,-0.7085985541343689,0.008588230237364769,0.2302505075931549,0.6669337153434753,3.41477370262146,3.366314649581909,8.592510223388672,-33.78143310546875,39.57725524902344,130.27383422851562
1785712347680427,398714247,-0.7226260304450989,0.012593417428433895,0.22247669100761414,0.6543383002281189,3.606358766555786,3.2697417736053467,9.03923511505127,-37.743377685546875,41.5865478515625,131.1399383544922
1785712347681845,398730914,-0.7365672588348389,0.016921265050768852,0.21332108974456787,0.6416212916374207,3.517577648162842,2.956272840499878,9.453407287597656,-45.387542724609375,46.85459518432617,131.95880126953125
1785712347710294,398747581,-0.7504433393478394,0.021255724132061005,0.20300503075122833,0.628628134727478,3.3118367195129395,2.5282769203186035,9.501812934875488,-50.14168930053711,52.573299407958984,133.21908569335938
1785712347712092,398764248,-0.7638250589370728,0.025202443823218346,0.1932501494884491,0.6152981519699097,3.0960891246795654,2.239103317260742,9.167553901672363,-45.31687927246094,50.612464904785156,132.19891357421875
1785712347739874,398780915,-0.7766009569168091,0.028510548174381256,0.18462638556957245,0.601658284664154,2.8395867347717285,2.328565835952759,8.963808059692383,-36.871002197265625,46.51287841796875,130.2213897705078
1785712347787972,398797582,-0.788277804851532,0.03279978036880493,0.1764487773180008,0.588565468788147,2.528639316558838,2.426783323287964,9.145744323730469,-41.177066802978516,38.78041076660156,123.8950424194336
1785712347788239,398814249,-0.7990768551826477,0.03862407058477402,0.168117493391037,0.5759533047676086,2.635758876800537,2.0150482654571533,9.122881889343262,-50.9005126953125,32.4420166015625,119.6422119140625
1785712347799661,398830916,-0.809834897518158,0.044920019805431366,0.15995308756828308,0.562641978263855,2.65309476852417,1.3237299919128418,9.164624214172363,-52.03526306152344,29.422286987304688,123.81612396240234
1785712347801505,398847583,-0.8203059434890747,0.04919254779815674,0.15275199711322784,0.5489504933357239,2.4620285034179688,0.8416194915771484,9.43100643157959,-36.7122688293457,31.450210571289062,122.30284118652344
1785712347830435,398864250,-0.8301368951797485,0.05129886418581009,0.14622129499912262,0.5355952382087708,2.583549976348877,0.9420489072799683,9.623573303222656,-22.53408432006836,35.284706115722656,115.48249053955078
1785712347834063,398880917,-0.839647114276886,0.05229603871703148,0.13964760303497314,0.5222622156143188,2.7462265491485596,1.2830690145492554,9.803637504577637,-16.49677085876465,39.29802703857422,113.0767593383789
1785712347861464,398897584,-0.8488027453422546,0.05345587432384491,0.1332530975341797,0.5088432431221008,2.502837896347046,1.3317478895187378,9.531375885009766,-16.840635299682617,37.30670928955078,112.38719940185547
1785712347862231,398914251,-0.8573365211486816,0.05449100211262703,0.12774935364723206,0.49566754698753357,2.0979769229888916,1.1910406351089478,9.220340728759766,-13.448906898498535,32.0625,108.34833526611328
1785712347890626,398930918,-0.864961564540863,0.05508745461702347,0.12276289612054825,0.4834643602371216,2.135240316390991,1.1530061960220337,9.000208854675293,-10.299886703491211,30.07207679748535,98.9410171508789
1785712347946462,398947585,-0.8720622062683105,0.05590207874774933,0.11687785387039185,0.4719359576702118,2.528677463531494,1.184362530708313,9.162426948547363,-15.35394287109375,34.5023078918457,93.70447540283203
1785712347946924,398964252,-0.8791065812110901,0.057337529957294464,0.10978765785694122,0.4602523148059845,2.5099830627441406,0.9578368067741394,9.195870399475098,-22.886438369750977,39.60879135131836,95.412841796875
1785712347951367,398980919,-0.8859418630599976,0.0587766207754612,0.1023944616317749,0.4485189616680145,2.092437505722046,0.6654647588729858,9.27152156829834,-23.91197395324707,41.25114059448242,95.17511749267578
1785712347952629,398997586,-0.8924586772918701,0.05939793214201927,0.0950152724981308,0.4369930028915405,1.8484954833984375,0.42054957151412964,9.176478385925293,-19.166812896728516,43.546669006347656,92.33928680419922
1785712347981332,399014253,-0.898611307144165,0.0580914206802845,0.08841007947921753,0.42580312490463257,1.6902272701263428,0.27478140592575073,9.121328353881836,-5.3788251876831055,44.4876594543457,87.6158676147461
1785712347982686,399030920,-0.9042541980743408,0.05492912977933884,0.08323492854833603,0.41518741846084595,1.6944371461868286,0.29742300510406494,9.112686157226562,9.720014572143555,41.00407409667969,80.87078857421875
1785712348010259,399047587,-0.9095015525817871,0.051081668585538864,0.07838527858257294,0.40503713488578796,1.8238431215286255,0.5007776021957397,9.161330223083496,14.490411758422852,40.885032653808594,76.32698059082031
1785712348011729,399064254,-0.9145713448524475,0.04753674566745758,0.07327200472354889,0.3948827087879181,1.728441596031189,0.5073294639587402,9.247525215148926,11.80223274230957,41.593570709228516,76.1133804321289
1785712348039866,399080921,-0.9193844199180603,0.04340135678648949,0.06843821704387665,0.38492390513420105,1.488889217376709,0.356067031621933,9.037910461425781,16.089515686035156,41.374366760253906,73.79925537109375
1785712348103664,399097588,-0.9238214492797852,0.03765688091516495,0.06494753807783127,0.3753919303417206,1.370615839958191,0.4002990424633026,9.24707317352295,29.502391815185547,37.092960357666016,68.9522705078125
1785712348103930,399114255,-0.9278094172477722,0.031129969283938408,0.062284916639328,0.3665004372596741,1.5465128421783447,0.634483277797699,9.120625495910645,36.20594024658203,33.81789779663086,63.158897399902344
1785712348105160,399130922,-0.9315893054008484,0.024699617177248,0.05946104973554611,0.3577668070793152,1.5049947500228882,0.8745090365409851,9.3965425491333,35.069210052490234,34.54821014404297,61.69749069213867
1785712348129916,399147589,-0.9351550340652466,0.01934732496738434,0.056592635810375214,0.3491554260253906,1.2013764381408691,0.880136251449585,9.321562767028809,27.966840744018555,32.11493682861328,60.830928802490234
1785712348131945,399164256,-0.9385980367660522,0.013276142999529839,0.05402263626456261,0.34050026535987854,0.9385907649993896,0.45350903272628784,9.07278823852539,33.303558349609375,31.868385314941406,60.49704360961914
1785712348133169,399180923,-0.9417795538902283,0.0046830265782773495,0.05256904661655426,0.3320651650428772,0.8384248614311218,0.5016919374465942,9.000130653381348,52.08517074584961,30.49070930480957,57.41948318481445
1785712348160630,399197590,-0.9446661472320557,-0.005443808156996965,0.05178006365895271,0.32387739419937134,0.9731464385986328,1.1112900972366333,9.234318733215332,63.435367584228516,29.590166091918945,54.56940460205078
1785712348161511,399214257,-0.9472764730453491,-0.014662148430943489,0.0511171892285347,0.31597596406936646,1.0972511768341064,1.631102204322815,9.337018966674805,57.722434997558594,26.6383113861084,52.42515182495117
1785712348190087,399230924,-0.9497329592704773,-0.022275714203715324,0.05047130584716797,0.30816441774368286,0.9392255544662476,1.5433927774429321,9.313103675842285,47.28874588012695,22.97797393798828,52.056182861328125
1785712348221652,399247591,-0.9520334005355835,-0.030042685568332672,0.05028807371854782,0.30033689737319946,0.8044194579124451,1.350498080253601,9.333334922790527,49.299407958984375,20.230194091796875,51.851444244384766
1785712348222499,399264258,-0.9540805816650391,-0.039013125002384186,0.050932858139276505,0.2926011383533478,0.8028742671012878,1.6608343124389648,9.477245330810547,58.905792236328125,17.18972396850586,50.49072265625
1785712348266265,399280925,-0.9557957053184509,-0.04875266179442406,0.052321657538414,0.2852044701576233,1.0303020477294922,2.0902626514434814,9.663461685180664,65.41695404052734,13.647761344909668,47.51994705200195
1785712348266531,399297592,-0.9572799205780029,-0.057984959334135056,0.05385721102356911,0.2781258821487427,1.1682878732681274,2.422285318374634,9.558568954467773,62.33163833618164,11.497664451599121,45.20402145385742
1785712348280280,399314259,-0.958591103553772,-0.06657485663890839,0.05540578439831734,0.27129819989204407,1.0680463314056396,2.2727832794189453,9.722586631774902,58.1024169921875,10.020172119140625,43.4589729309082
1785712348281587,399330926,-0.9596461057662964,-0.07547954469919205,0.05748521909117699,0.2647245526313782,0.804293692111969,2.148261547088623,9.674564361572266,61.186500549316406,6.893210411071777,41.434757232666016
1785712348310542,399347593,-0.9604568481445312,-0.08465398102998734,0.0605744868516922,0.25824153423309326,0.9316046237945557,2.327712297439575,10.13967227935791,64.89569091796875,0.5789806842803955,40.8096923828125
1785712348312160,399364260,-0.9610352516174316,-0.09340406954288483,0.06420369446277618,0.2521236836910248,1.1143593788146973,2.74481463432312,9.974390029907227,63.034786224365234,-4.048805236816406,38.47565460205078
1785712348340887,399380927,-0.9614499807357788,-0.10128575563430786,0.06793421506881714,0.24645796418190002,1.228289008140564,3.055631399154663,10.05640697479248,57.3750114440918,-6.588730335235596,35.64724349975586
1785712348370814,399397594,-0.9618366360664368,-0.10722757875919342,0.07139115035533905,0.2414071261882782,1.227442741394043,3.0628881454467773,9.976741790771484,43.81935119628906,-8.506848335266113,32.251895904541016
1785712348371689,399414261,-0.9621826410293579,-0.11209776252508163,0.07493661344051361,0.23669514060020447,1.250471830368042,3.0262012481689453,10.209041595458984,36.742008209228516,-11.140417098999023,30.529802322387695
1785712348431460,399430928,-0.962863564491272,-0.11396382749080658,0.07847107201814651,0.23184004426002502,1.3476066589355469,3.1269447803497314,10.681673049926758,16.664432525634766,-15.6746187210083,33.565711975097656
1785712348432080,399447595,-0.9635930061340332,-0.11428766697645187,0.08218268305063248,0.2273196280002594,1.7127405405044556,2.5894534587860107,10.727832794189453,6.517832279205322,-19.543167114257812,32.392093658447266
1785712348435155,399464262,-0.964084267616272,-0.1152033731341362,0.08568733185529709,0.22344760596752167,1.9855390787124634,2.089871644973755,10.514771461486816,9.93714714050293,-17.885766983032227,27.232189178466797
1785712348435597,399480929,-0.9641733169555664,-0.11816157400608063,0.0892808586359024,0.22008651494979858,1.9344666004180908,2.181530237197876,10.595170974731445,23.630098342895508,-15.978734016418457,22.09372329711914
1785712348460079,399497596,-0.9641976952552795,-0.12100336700677872,0.09260851889848709,0.21703967452049255,2.06154203414917,2.6666977405548096,10.792296409606934,22.3176326751709,-14.684433937072754,19.7764949798584
1785712348461836,399514263,-0.9643413424491882,-0.12304473668336868,0.09543956071138382,0.2140062004327774,2.232226610183716,2.623728036880493,10.72370719909668,16.162124633789062,-12.520340919494629,19.961164474487305
1785712348489870,399530930,-0.9645523428916931,-0.12476582080125809,0.09776809811592102,0.2109859138727188,2.1540191173553467,2.67710280418396,10.954751014709473,13.236398696899414,-9.621676445007324,19.76939582824707
1785712348520180,399547597,-0.9648650288581848,-0.12539955973625183,0.09963998198509216,0.20828813314437866,1.9053332805633545,2.8444578647613525,11.402249336242676,5.060891151428223,-8.37975788116455,18.118406295776367
1785712348521647,399564264,-0.9652544856071472,-0.1247900202870369,0.10126163065433502,0.20605559647083282,1.9068100452423096,2.881173849105835,11.5015230178833,-3.9289796352386475,-8.846097946166992,15.78039264678955
1785712348585450,399580931,-0.9657653570175171,-0.12276432663202286,0.10226564854383469,0.20437605679035187,2.0394744873046875,2.8903627395629883,11.662908554077148,-14.689148902893066,-7.142176151275635,12.74211311340332
1785712348586131,399597598,-0.966344952583313,-0.11952470242977142,0.10279472172260284,0.2032884955406189,2.2784085273742676,2.5064587593078613,11.149006843566895,-23.89137840270996,-6.142657279968262,9.355913162231445
1785712348587598,399614265,-0.9668949842453003,-0.1167001724243164,0.10273009538650513,0.20234408974647522,2.461937427520752,2.2079660892486572,10.852718353271484,-22.037437438964844,-1.75686776638031,7.591867923736572
1785712348587837,399630932,-0.9674400687217712,-0.11415128409862518,0.10246562957763672,0.20132401585578918,2.376178026199341,2.356750249862671,10.726675033569336,-20.424022674560547,0.013350642286241055,7.722555160522461
1785712348609710,399647599,-0.9680457711219788,-0.11120501905679703,0.10163798928260803,0.2004789561033249,2.340773105621338,2.431365966796875,10.618321418762207,-24.01674461364746,3.116899013519287,6.488689422607422
1785712348611655,399664266,-0.9686938524246216,-0.10784094780683517,0.09992477297782898,0.20004771649837494,2.4612464904785156,2.056398630142212,10.162684440612793,-28.337480545043945,8.152080535888672,3.416738271713257
1785712348640450,399680933,-0.9691424369812012,-0.10632072389125824,0.09809264540672302,0.19959524273872375,2.411431074142456,1.72676682472229,9.904311180114746,-16.05795669555664,11.360036849975586,1.9354839324951172
1785712348670825,399697600,-0.9695544242858887,-0.10583600401878357,0.09614595770835876,0.19879743456840515,2.0157032012939453,2.072148084640503,10.192127227783203,-9.054289817810059,13.773734092712402,3.399839162826538
1785712348672195,399714267,-0.9699588418006897,-0.10498123615980148,0.09452181309461594,0.19805537164211273,1.9292292594909668,2.244049310684204,10.27119255065918,-11.1080322265625,11.076574325561523,3.5074636936187744
1785712348700330,399730934,-0.9702510833740234,-0.10410322993993759,0.09316924214363098,0.19772747159004211,1.8874475955963135,2.1988868713378906,9.988182067871094,-11.080458641052246,8.865042686462402,0.794602632522583
1785712348701823,399747601,-0.9704969525337219,-0.10303032398223877,0.09150539338588715,0.19785988330841064,1.8861072063446045,2.227644920349121,10.088967323303223,-13.064408302307129,10.315069198608398,-2.424551486968994
1785712348745968,399764268,-0.9707366228103638,-0.10181891918182373,0.08985428512096405,0.1980682909488678,1.9273629188537598,2.0739524364471436,9.941123962402344,-14.013630867004395,9.98654842376709,-2.841590642929077
1785712348746563,399780935,-0.9709681272506714,-0.10075312107801437,0.08825486898422241,0.19819755852222443,1.8351246118545532,2.221440553665161,10.272988319396973,-12.918121337890625,9.89056396484375,-2.3844034671783447
1785712348760468,399797602,-0.9711835980415344,-0.09930004179477692,0.08680051565170288,0.19851668179035187,1.7275009155273438,2.200040340423584,10.392806053161621,-15.407794952392578,8.256499290466309,-3.3340981006622314
1785712348762229,399814269,-0.971325695514679,-0.09809286892414093,0.0854245200753212,0.19901834428310394,1.672828197479248,2.1272737979888916,10.335373878479004,-13.717855453491211,7.899598121643066,-4.745845794677734
1785712348790430,399830936,-0.9714576005935669,-0.09720754623413086,0.08375602215528488,0.1995171457529068,1.7510772943496704,2.1180949211120605,10.102499961853027,-11.960795402526855,10.287035942077637,-5.133545398712158
1785712348820059,399847603,-0.9716081023216248,-0.09671024978160858,0.08170846104621887,0.19987516105175018,1.780556321144104,2.141481399536133,10.033703804016113,-9.818408966064453,13.46346378326416,-4.624877452850342
1785712348821870,399864270,-0.9717789888381958,-0.09644530713558197,0.07950005680322647,0.2000623196363449,1.6221753358840942,2.1738905906677246,10.128059387207031,-8.404919624328613,14.979405403137207,-3.700834274291992
1785712348849769,399880937,-0.971917450428009,-0.09641695767641068,0.07705792784690857,0.20035907626152039,1.4788596630096436,2.1307005882263184,10.293902397155762,-7.183319568634033,16.779468536376953,-4.7613677978515625
1785712348851624,399897604,-0.9720174670219421,-0.0962013229727745,0.07468389719724655,0.20087549090385437,1.3153507709503174,2.2314934730529785,10.436176300048828,-8.431160926818848,15.90165901184082,-6.123697280883789
1785712348898689,399914271,-0.9720062017440796,-0.0961928442120552,0.0721689760684967,0.20185136795043945,1.5169671773910522,2.237499713897705,10.4530668258667,-7.40457820892334,16.767282485961914,-9.566434860229492
1785712348898954,399930938,-0.9720019102096558,-0.0959690511226654,0.06924334913492203,0.20300012826919556,1.6583201885223389,2.1936657428741455,10.366639137268066,-9.503599166870117,19.106430053710938,-10.864559173583984
1785712348910115,399947605,-0.9719567894935608,-0.09616435319185257,0.06589552760124207,0.2042342573404312,1.5023695230484009,2.126446008682251,10.216876029968262,-7.305912017822266,22.437501907348633,-11.959622383117676
1785712348911598,399964272,-0.971867024898529,-0.09634966403245926,0.062321461737155914,0.20569097995758057,1.271918535232544,2.1761980056762695,10.215309143066406,-7.760939121246338,23.769338607788086,-13.665989875793457
1785712348940310,399980939,-0.9716610312461853,-0.09682809561491013,0.058694373816251755,0.20749861001968384,1.079333782196045,2.2589504718780518,10.221891403198242,-5.950873374938965,24.256792068481445,-16.325584411621094
1785712348971114,399997606,-0.9713934659957886,-0.09681335836648941,0.05526425689458847,0.20968826115131378,1.1179091930389404,2.336479902267456,10.315703392028809,-9.078232765197754,21.96045684814453,-18.627614974975586
1785712348971908,400014273,-0.9710568785667419,-0.0968502014875412,0.051776062697172165,0.212106853723526,1.1648406982421875,2.3235061168670654,10.185748100280762,-8.857873916625977,22.243803024291992,-20.324501037597656
1785712349034933,400030940,-0.970679521560669,-0.09638188034296036,0.04792692884802818,0.2149328589439392,1.1368634700775146,2.284252643585205,10.021869659423828,-12.877327919006348,23.630041122436523,-23.166200637817383
1785712349035212,400047607,-0.9701699614524841,-0.09618129581212997,0.04371451586484909,0.21819721162319183,1.0282566547393799,2.148737668991089,9.854480743408203,-11.685112953186035,26.115684509277344,-26.621238708496094
1785712349036438,400064274,-0.9695608019828796,-0.09584411233663559,0.03976741060614586,0.2217787206172943,0.7481634020805359,2.2315852642059326,9.77696418762207,-12.227517127990723,23.905824661254883,-28.657947540283203
1785712349036685,400080941,-0.9688363671302795,-0.09500179439783096,0.03624369576573372,0.22587314248085022,0.596238374710083,2.2960243225097656,9.693328857421875,-15.014955520629883,19.944164276123047,-31.83945655822754
1785712349060426,400097608,-0.9680023193359375,-0.0935700461268425,0.03276727348566055,0.23052966594696045,0.8293070197105408,2.1080753803253174,9.632285118103027,-18.937816619873047,18.31910514831543,-35.58559799194336
1785712349061802,400114275,-0.9669579267501831,-0.09247034788131714,0.0291576124727726,0.23578199744224548,0.9091027975082397,1.8880808353424072,9.650091171264648,-16.938873291015625,19.302759170532227,-40.0345344543457
1785712349090588,400130942,-0.9657400250434875,-0.09199771285057068,0.025576427578926086,0.24130843579769135,0.8562846183776855,1.8750334978103638,9.432188987731934,-12.669374465942383,19.921329498291016,-42.24095916748047
1785712349119644,400147609,-0.9643855690956116,-0.09195750951766968,0.022000914439558983,0.24702578783035278,0.5220892429351807,2.1273350715637207,9.430656433105469,-9.736725807189941,20.458965301513672,-43.80411148071289
1785712349121572,400164276,-0.9629212021827698,-0.09115023910999298,0.018640568479895592,0.25323623418807983,0.38434797525405884,2.2817561626434326,9.461626052856445,-14.464025497436523,17.4033203125,-47.017295837402344
1785712349150383,400180943,-0.9613317847251892,-0.08958247303962708,0.01532196905463934,0.25996723771095276,0.4302169680595398,2.1357131004333496,9.025364875793457,-19.416717529296875,15.461771011352539,-50.554561614990234
1785712349151338,400197610,-0.9594336152076721,-0.08825768530368805,0.012091364711523056,0.2674943804740906,0.5369521379470825,1.899614930152893,8.857795715332031,-17.549062728881836,14.794631958007812,-56.34075927734375
1785712349194634,400214277,-0.9571775794029236,-0.0876053124666214,0.008972585201263428,0.2757855951786041,0.30856218934059143,2.07723331451416,9.091434478759766,-12.756083488464355,14.798349380493164,-62.02024841308594
1785712349195164,400230944,-0.9547644257545471,-0.08583902567625046,0.006140505895018578,0.2846410274505615,-0.022617805749177933,2.2878313064575195,9.37076187133789,-19.485858917236328,10.451472282409668,-65.79454040527344
1785712349210427,400247611,-0.9521811604499817,-0.08333003520965576,0.0038550652097910643,0.29392844438552856,0.10394924879074097,2.0988385677337646,9.11851978302002,-23.211885452270508,5.148958206176758,-68.60084533691406
1785712349211896,400264278,-0.9493009448051453,-0.08127526938915253,0.0014901580289006233,0.30367958545684814,0.4539000988006592,1.9375797510147095,8.859139442443848,-20.243696212768555,6.313265800476074,-72.30500793457031
1785712349240452,400280945,-0.9461266398429871,-0.08031541854143143,-0.0010533309541642666,0.3136783838272095,0.42970898747444153,1.955188512802124,9.031332015991211,-13.310783386230469,9.624112129211426,-74.63776397705078
1785712349270479,400297612,-0.9429064393043518,-0.07893339544534683,-0.003150787204504013,0.32355621457099915,-0.5466874837875366,2.2324118614196777,9.181069374084473,-15.07288932800293,5.880006313323975,-73.7206802368164
1785712349271892,400314279,-0.9393823146820068,-0.07690496742725372,-0.00423731142655015,0.3341110646724701,-0.8247036933898926,2.334561347961426,8.939473152160645,-16.838773727416992,-2.4724371433258057,-78.24559020996094
1785712349301150,400330946,-0.9354808330535889,-0.07502084225416183,-0.005066482350230217,0.34528759121894836,-0.1886427104473114,2.120577096939087,8.631248474121094,-15.101126670837402,-4.123427867889404,-82.99291229248047
1785712349302188,400347613,-0.9310314059257507,-0.07469118386507034,-0.006112542934715748,0.3571633994579315,0.3153764009475708,1.7460881471633911,8.572388648986816,-5.314219951629639,0.619812548160553,-88.853271484375
1785712349354433,400364280,-0.926305890083313,-0.07459455728530884,-0.007984391413629055,0.3692299425601959,0.18992629647254944,1.80732262134552,9.024736404418945,-5.703296661376953,6.3931121826171875,-91.16930389404297
1785712349354692,400380947,-0.9216164946556091,-0.07376269996166229,-0.009732956066727638,0.38090527057647705,-0.6439864039421082,2.059156656265259,9.121393203735352,-10.116146087646484,3.940758466720581,-88.55903625488281
1785712349360097,400397614,-0.9168866872787476,-0.07171148806810379,-0.011331493966281414,0.39249154925346375,-0.9678921103477478,2.180016040802002,8.862021446228027,-17.438518524169922,-0.1559857577085495,-88.10717010498047
1785712349361869,400414281,-0.9119088053703308,-0.07000666111707687,-0.012737249955534935,0.40417933464050293,-0.4618862271308899,1.664799451828003,8.141371726989746,-14.608150482177734,-0.4692125916481018,-89.2982406616211
1785712349391890,400430948,-0.9065248370170593,-0.07108735293149948,-0.013686839491128922,0.41590097546577454,0.047767069190740585,1.105601191520691,7.9358906745910645,4.320224761962891,4.429389476776123,-90.17987823486328
1785712349420717,400447615,-0.9008671045303345,-0.07403998076915741,-0.01449940912425518,0.42749011516571045,-0.2066870629787445,1.2704336643218994,8.571207046508789,16.49757194519043,9.020888328552246,-89.88422393798828
1785712349422603,400464282,-0.8951061367988586,-0.07664643973112106,-0.01507325004786253,0.4389587938785553,-1.3557348251342773,2.0336005687713623,8.828621864318848,15.093879699707031,6.59528923034668,-89.36420440673828
1785712349451125,400480949,-0.8890528082847595,-0.07748550176620483,-0.015124710276722908,0.45094767212867737,-1.7957103252410889,2.2381415367126465,8.67060661315918,5.998570442199707,-2.200096368789673,-93.35945129394531
1785712349452391,400497616,-0.8826332092285156,-0.0785687118768692,-0.014885148964822292,0.46321240067481995,-0.9866164922714233,1.642066478729248,8.04253101348877,8.613429069519043,-3.33492112159729,-96.00318908691406
1785712349517198,400514283,-0.8758217692375183,-0.08363672345876694,-0.014629121869802475,0.47510918974876404,-0.3386578857898712,1.3864887952804565,8.53660774230957,33.01799392700195,9.49201488494873,-94.59828186035156
1785712349517534,400530950,-0.8693304657936096,-0.08850999921560287,-0.014660896733403206,0.48602184653282166,-0.948004424571991,1.9591578245162964,9.824516296386719,30.619871139526367,11.1237154006958,-87.81219482421875
1785712349518825,400547617,-0.8631647825241089,-0.08943875879049301,-0.01467113010585308,0.49672290682792664,-1.9842435121536255,2.388753652572632,9.452088356018066,6.89378023147583,-2.091062545776367,-85.8453369140625
1785712349519065,400564284,-0.8570603728294373,-0.08858233690261841,-0.013667271472513676,0.5073610544204712,-2.0583314895629883,1.785169243812561,8.705430030822754,-0.2844236195087433,-14.179916381835938,-84.834228515625
1785712349540181,400580951,-0.850594699382782,-0.09020332992076874,-0.011156902648508549,0.5179082751274109,-1.4975600242614746,0.7187151908874512,7.952398777008057,19.779632568359375,-14.330157279968262,-84.40204620361328
1785712349570223,400597618,-0.8428919315338135,-0.09918732941150665,-0.007261197082698345,0.5288134813308716,-0.8656370043754578,0.6942325830459595,7.534705638885498,68.57050323486328,3.656529426574707,-89.4820556640625
1785712349571994,400614285,-0.8345357775688171,-0.11307058483362198,-0.0036834371276199818,0.5392150282859802,-0.8110581636428833,2.209813117980957,9.109638214111328,96.22925567626953,23.68753433227539,-88.91973114013672
1785712349600072,400630952,-0.8271613121032715,-0.12262891232967377,-0.0026840362697839737,0.5484163165092468,-1.7084964513778687,3.928586959838867,10.156023979187012,61.05599594116211,23.353166580200195,-80.50214385986328
1785712349601523,400647619,-0.8218066096305847,-0.12358077615499496,-0.004132265690714121,0.5561888813972473,-2.3482272624969482,3.461740493774414,8.96860408782959,1.1461929082870483,5.986634731292725,-66.98603820800781
1785712349630225,400664286,-0.8170135617256165,-0.12471608072519302,-0.004461641889065504,0.5629532933235168,-2.1736385822296143,1.0685440301895142,7.696120738983154,5.9499335289001465,1.2011284828186035,-58.193511962890625
1785712349631634,400680953,-0.8109439015388489,-0.134473979473114,-0.0019871369004249573,0.5694594979286194,-1.5684067010879517,-0.31215226650238037,7.86041784286499,66.32697296142578,19.08139419555664,-59.018653869628906
1785712349678247,400697620,-0.8034210205078125,-0.15406836569309235,0.0025331182405352592,0.5751281976699829,-1.3254393339157104,1.0774319171905518,8.871658325195312,130.5275115966797,46.982791900634766,-58.02001190185547
1785712349678500,400714287,-0.7963712811470032,-0.17513713240623474,0.00676250085234642,0.5788572430610657,-2.47780179977417,3.5964388847351074,9.803877830505371,137.0562286376953,56.485595703125,-45.754276275634766
1785712349689918,400730954,-0.7912722826004028,-0.18930459022521973,0.010004004463553429,0.5813376307487488,-3.737208366394043,4.383808135986328,9.357613563537598,93.03707122802734,36.014522552490234,-32.02509307861328
1785712349720488,400747621,-0.7870001792907715,-0.1996852457523346,0.013926435261964798,0.5835787057876587,-3.6141090393066406,2.8748250007629395,8.594037055969238,74.09516906738281,17.53205680847168,-26.296968460083008
1785712349750736,400764288,-0.7818893790245056,-0.21316200494766235,0.01954388990998268,0.5855172276496887,-2.617210626602173,1.7672600746154785,8.679818153381348,98.83137512207031,21.108999252319336,-25.990047454833984
1785712349752195,400780955,-0.7755380272865295,-0.23227806389331818,0.025593731552362442,0.5864591002464294,-1.9955121278762817,3.1427178382873535,9.816426277160645,132.85018920898438,42.77775192260742,-25.757959365844727
1785712349753591,400797622,-0.7701203227043152,-0.25044578313827515,0.029382087290287018,0.5859434604644775,-2.6571617126464844,5.185392379760742,10.414371490478516,117.44004821777344,53.5069465637207,-17.6579647064209
1785712349779989,400814289,-0.7666717171669006,-0.2640301287174225,0.0319853201508522,0.5843637585639954,-3.7745187282562256,5.33188009262085,9.38161563873291,85.21556091308594,43.54819107055664,-5.20974063873291
1785712349781456,400830956,-0.7638087868690491,-0.2754417061805725,0.03650709241628647,0.5825778245925903,-4.180779457092285,3.8947041034698486,8.657625198364258,80.45474243164062,25.198896408081055,2.189037561416626
1785712349835908,400847623,-0.7599831819534302,-0.2879870533943176,0.044217780232429504,0.5809778571128845,-3.2706639766693115,2.8992199897766113,8.924246788024902,100.96067810058594,12.394674301147461,3.111473798751831
1785712349836186,400864290,-0.7552229762077332,-0.30400142073631287,0.05349932610988617,0.5782394409179688,-2.2159321308135986,3.8801732063293457,9.658942222595215,127.56654357910156,20.01510238647461,7.381675720214844
1785712349840125,400880957,-0.7505255937576294,-0.3211267590522766,0.06230348348617554,0.5742024183273315,-2.8818092346191406,6.084797382354736,9.87804126739502,131.7908172607422,29.65013885498047,12.973820686340332
1785712349871016,400897624,-0.7467650175094604,-0.33441007137298584,0.06984715163707733,0.5706440806388855,-3.651848316192627,7.4384684562683105,9.43730354309082,104.71002960205078,20.330923080444336,13.069416046142578
1785712349871972,400914291,-0.7443768978118896,-0.34235429763793945,0.0759936198592186,0.5682631134986877,-3.531996726989746,7.279135704040527,9.072854995727539,68.09452056884766,4.505727291107178,11.75018310546875
1785712349901598,400930958,-0.7431011199951172,-0.34624606370925903,0.08083688467741013,0.5669050216674805,-2.6816885471343994,6.204211235046387,9.823051452636719,39.10723876953125,-6.484097480773926,9.918466567993164
1785712349903084,400947625,-0.7426559925079346,-0.34851157665252686,0.08503246307373047,0.5654845237731934,-1.7785274982452393,5.058292865753174,9.681312561035156,26.333765029907227,-8.900365829467773,12.840079307556152
1785712349931547,400964292,-0.7411250472068787,-0.35406890511512756,0.09024916589260101,0.5632278323173523,-2.287006378173828,4.895457744598389,8.897481918334961,50.206504821777344,0.05867284536361694,13.406460762023926
1785712349934117,400980959,-0.738133430480957,-0.36181288957595825,0.09709476679563522,0.5610922574996948,-2.941319227218628,5.588086128234863,8.638309478759766,71.141357421875,-0.9688052535057068,9.7493896484375
1785712350012616,400997626,-0.7349286079406738,-0.3691577613353729,0.10434459149837494,0.5592101812362671,-2.9224281311035156,6.66015625,8.510690689086914,71.03690338134766,-5.327833652496338,8.918511390686035
1785712350013025,401014293,-0.7319084405899048,-0.37541162967681885,0.110969677567482,0.5577306747436523,-2.549694776535034,7.640582084655762,9.087516784667969,62.367557525634766,-7.248791217803955,6.786610126495361
1785712350014283,401030960,-0.7300035357475281,-0.37870246171951294,0.11565432697534561,0.5570502281188965,-1.7322877645492554,7.870464324951172,8.99622631072998,36.53137969970703,-10.06192398071289,4.290027141571045
1785712350021660,401047627,-0.7286527156829834,-0.38164815306663513,0.11870235949754715,0.5561663508415222,-1.7136175632476807,7.331948280334473,8.242156028747559,27.24665069580078,-2.1910440921783447,3.4600348472595215
1785712350022740,401064294,-0.7269644141197205,-0.3851005733013153,0.12228361517190933,0.5552192330360413,-2.398864507675171,6.777687072753906,7.970851898193359,32.75947570800781,-3.0255115032196045,3.47707200050354
1785712350050647,401080961,-0.7243967652320862,-0.389316201210022,0.12772540748119354,0.5544095039367676,-2.6588125228881836,6.522029399871826,7.636343955993652,45.8935432434082,-10.511995315551758,3.714773416519165
1785712350052964,401097628,-0.7208300232887268,-0.39480501413345337,0.13453930616378784,0.5535646080970764,-2.3258934020996094,6.587158679962158,7.691971302032471,60.173377990722656,-13.272383689880371,2.639199733734131
1785712350079866,401114295,-0.7170146703720093,-0.4009464979171753,0.14139589667320251,0.552395224571228,-1.6596990823745728,7.432195663452148,7.959071159362793,64.54554748535156,-10.348532676696777,2.812553644180298
1785712350081662,401130962,-0.7139542102813721,-0.40633270144462585,0.14768724143505096,0.5507749915122986,-1.6866567134857178,7.824649810791016,7.562814235687256,57.03663635253906,-8.447477340698242,7.078993797302246
1785712350110557,401147629,-0.7119290232658386,-0.40991804003715515,0.153422549366951,0.549169659614563,-2.18591046333313,8.020064353942871,7.919895648956299,43.181095123291016,-11.51809024810791,11.204991340637207
1785712350111647,401164296,-0.7118390202522278,-0.41028761863708496,0.15811306238174438,0.5476779341697693,-1.9300726652145386,7.313830852508545,7.091437816619873,17.926115036010742,-16.826000213623047,18.399694442749023
1785712350172123,401180963,-0.7122207283973694,-0.4111844003200531,0.16279086470603943,0.5451326966285706,-1.9175395965576172,6.528626441955566,6.552473545074463,20.27414321899414,-11.291851997375488,24.72258758544922
1785712350174114,401197630,-0.7113216519355774,-0.41518187522888184,0.16873417794704437,0.5414569973945618,-2.3647220134735107,7.27677583694458,7.222170829772949,45.087459564208984,-4.100708961486816,25.575708389282227
1785712350175229,401214297,-0.7099938988685608,-0.4193410575389862,0.17345330119132996,0.5384953618049622,-1.9682950973510742,9.126137733459473,8.218932151794434,41.72306823730469,-0.05059824883937836,16.80147933959961
1785712350201502,401230964,-0.7103620171546936,-0.42036187648773193,0.17364761233329773,0.5371493697166443,-2.035153865814209,10.384317398071289,8.433158874511719,2.837766170501709,7.793325424194336,5.8943867683410645
1785712350202204,401247631,-0.7128159999847412,-0.416180282831192,0.17078062891960144,0.5380730628967285,-2.297118663787842,9.823556900024414,8.382915496826172,-42.61660385131836,-0.5283549427986145,-0.1271294504404068
1785712350231190,401264298,-0.7164987921714783,-0.40959152579307556,0.166519433259964,0.539571225643158,-2.280670404434204,7.486822128295898,7.170541763305664,-63.75934600830078,-2.8049509525299072,0.4411531090736389
1785712350232346,401280965,-0.7183297872543335,-0.4066849648952484,0.16400146484375,0.5401061177253723,-2.3570120334625244,5.88027811050415,6.608735084533691,-32.83366012573242,2.8628640174865723,-0.9866944551467896
1785712350260523,401297632,-0.7178506851196289,-0.40796875953674316,0.16356326639652252,0.5399078130722046,-2.293510913848877,6.101339817047119,6.874900817871094,2.8754684925079346,7.594648838043213,-4.843414306640625
1785712350261494,401314299,-0.7164528965950012,-0.41055405139923096,0.16445623338222504,0.5395333766937256,-2.007490396499634,7.277496814727783,7.25215482711792,17.019765853881836,5.315825462341309,-5.119958877563477
1785712350289986,401330966,-0.7160648107528687,-0.4115176796913147,0.16469542682170868,0.5392414927482605,-1.6935425996780396,8.011277198791504,7.2952752113342285,3.6656196117401123,3.4278182983398438,-1.7968335151672363
1785712350325848,401347633,-0.7163493037223816,-0.4112248718738556,0.16463427245616913,0.5391052961349487,-1.906951665878296,8.199438095092773,6.8811492919921875,-5.711440563201904,0.5759080052375793,0.5093533396720886
1785712350326103,401364300,-0.7169588804244995,-0.40943434834480286,0.16439074277877808,0.539732038974762,-2.0538766384124756,8.162773132324219,7.105062007904053,-15.545526504516602,-5.866311550140381,-0.8650825023651123
1785712350349891,401380967,-0.7183635830879211,-0.40550994873046875,0.16374704241752625,0.5410211682319641,-1.865583062171936,7.685706615447998,6.886992454528809,-30.53567886352539,-12.774650573730469,0.10329001396894455
1785712350351348,401397634,-0.719197154045105,-0.4026762843132019,0.16339553892612457,0.5421354174613953,-1.8070749044418335,7.514552593231201,6.581888675689697,-22.270492553710938,-10.31296157836914,-1.568793773651123
1785712350380076,401414301,-0.7192332148551941,-0.40048933029174805,0.16357305645942688,0.5436517000198364,-1.6616414785385132,7.761518955230713,6.870058536529541,-15.34564208984375,-12.525052070617676,-5.789093017578125
1785712350381404,401430968,-0.7192203402519226,-0.3979438543319702,0.1636919379234314,0.5454991459846497,-1.5236291885375977,7.7574968338012695,6.857419013977051,-17.574665069580078,-14.536237716674805,-7.36400032043457
1785712350410272,401447635,-0.7190873622894287,-0.39569804072380066,0.16401076316833496,0.5472096800804138,-1.5163516998291016,7.59446907043457,6.785111427307129,-14.860715866088867,-14.15725040435791,-6.92772102355957
1785712350411814,401464302,-0.7188196182250977,-0.3938775062561035,0.16442643105983734,0.5487479567527771,-1.5376538038253784,7.548144340515137,6.866078853607178,-11.830495834350586,-12.718884468078613,-6.800436496734619
1785712350439845,401480969,-0.718457818031311,-0.39240267872810364,0.16490007936954498,0.5501343607902527,-1.5910890102386475,7.5453386306762695,6.751710414886475,-9.476988792419434,-11.398391723632812,-6.638138771057129
1785712350484219,401497636,-0.7180469632148743,-0.39117759466171265,0.16553063690662384,0.5513526201248169,-1.6170754432678223,7.624731540679932,6.871284008026123,-7.328272342681885,-10.819233894348145,-5.84682035446167
1785712350484889,401514303,-0.7179027795791626,-0.38966119289398193,0.16574935615062714,0.5525473356246948,-1.608022689819336,7.692605018615723,6.747742176055908,-11.01514720916748,-9.535205841064453,-5.504339694976807
1785712350499996,401530970,-0.7177383303642273,-0.3883123993873596,0.16600249707698822,0.5536332130432129,-1.6681346893310547,7.709029197692871,6.707129955291748,-9.87846565246582,-8.796712875366211,-5.143468856811523
1785712350501491,401547637,-0.7177271246910095,-0.38672733306884766,0.16608186066150665,0.5547322630882263,-1.7283332347869873,7.601718902587891,6.698884963989258,-12.132988929748535,-8.691560745239258,-4.813666820526123
1785712350529925,401564304,-0.7176885008811951,-0.38539597392082214,0.16615045070648193,0.5556877255439758,-1.7973130941390991,7.454405784606934,6.602151393890381,-10.685331344604492,-7.3135457038879395,-4.528059482574463
1785712350531602,401580971,-0.7174871563911438,-0.384485125541687,0.1663137823343277,0.5565290451049805,-1.8149968385696411,7.425875186920166,6.641526222229004,-7.686016082763672,-6.057867527008057,-4.813140869140625
1785712350560462,401597638,-0.7172020077705383,-0.383905291557312,0.16638223826885223,0.5572759509086609,-1.8459303379058838,7.478834629058838,6.706258773803711,-6.086719512939453,-4.175882816314697,-5.3026885986328125
1785712350561487,401614305,-0.7169432640075684,-0.3833780586719513,0.16640599071979523,0.5579644441604614,-1.8768022060394287,7.535974025726318,6.781507968902588,-6.001351833343506,-3.564187526702881,-5.08793830871582
1785712350590397,401630972,-0.7167157530784607,-0.3829602003097534,0.16631442308425903,0.5585704445838928,-1.8556638956069946,7.500860691070557,6.705570220947266,-5.8917670249938965,-2.3345084190368652,-4.996781826019287
1785712350637974,401647639,-0.716430127620697,-0.38274824619293213,0.16630151867866516,0.5590857267379761,-1.8253332376480103,7.480906009674072,6.673842430114746,-4.319889545440674,-1.742431879043579,-4.792148590087891
1785712350638253,401664306,-0.7161245942115784,-0.38269343972206116,0.1663263589143753,0.5595073103904724,-1.7828658819198608,7.501601219177246,6.637433052062988,-3.238905668258667,-1.1129872798919678,-4.496399402618408
1785712350650508,401680973,-0.7158095836639404,-0.3827502727508545,0.16627955436706543,0.5598850846290588,-1.7512190341949463,7.495035648345947,6.732267379760742,-2.8907647132873535,-0.22361165285110474,-4.628381252288818
1785712350651909,401697640,-0.7154948115348816,-0.3828422427177429,0.16619360446929932,0.5602502226829529,-1.6774463653564453,7.47595739364624,6.78896427154541,-2.8562259674072266,0.14364242553710938,-4.70664119720459
1785712350680401,401714307,-0.7152398824691772,-0.38296830654144287,0.1659749448299408,0.5605542063713074,-1.6409498453140259,7.412501335144043,6.744543552398682,-3.2853925228118896,1.1569961309432983,-4.563889026641846
1785712350681639,401730974,-0.7150001525878906,-0.383248895406723,0.16578039526939392,0.5607259273529053,-1.635544776916504,7.436956405639648,6.737032890319824,-2.323519706726074,2.005749464035034,-3.966651201248169
1785712350710618,401747641,-0.7148389220237732,-0.3834002614021301,0.16552922129631042,0.5609021782875061,-1.6353626251220703,7.50654411315918,6.7819671630859375,-3.388970136642456,1.860154628753662,-3.6904704570770264
1785712350711725,401764308,-0.7147592306137085,-0.38344883918762207,0.16523577272891998,0.5610568523406982,-1.66801118850708,7.473016738891602,6.74363899230957,-4.247469902038574,1.8222218751907349,-3.2642879486083984
1785712350771172,401780975,-0.7147396802902222,-0.3834855854511261,0.16491559147834778,0.5611509084701538,-1.7197335958480835,7.480802536010742,6.863222599029541,-4.499639511108398,2.140716075897217,-2.786008596420288
1785712350773866,401797642,-0.7147568464279175,-0.3835356533527374,0.16464348137378693,0.561174750328064,-1.7492377758026123,7.477114200592041,6.887253761291504,-4.265244960784912,2.1869852542877197,-2.1888999938964844
1785712350774232,401814309,-0.7148773670196533,-0.38352423906326294,0.16428858041763306,0.561133086681366,-1.788429856300354,7.450048923492432,6.925551414489746,-5.086055278778076,2.6468358039855957,-1.6181466579437256
1785712350800047,401830976,-0.7149218320846558,-0.3836095631122589,0.16411010921001434,0.5610702633857727,-1.8021564483642578,7.392237186431885,6.836451053619385,-3.702418565750122,2.1192781925201416,-1.453687310218811
1785712350801580,401847643,-0.714836061000824,-0.38395968079566956,0.16402488946914673,0.560964822769165,-1.796371579170227,7.353309631347656,6.811093807220459,-1.6493682861328125,2.653533458709717,-1.7983062267303467
1785712350830595,401864310,-0.7146308422088623,-0.3844645023345947,0.16406743228435516,0.5608683228492737,-1.792140245437622,7.37484884262085,6.813370704650879,-0.0913861095905304,2.45993971824646,-2.1378023624420166
1785712350831639,401880977,-0.7144367694854736,-0.3848705589771271,0.1641092747449875,0.5608248710632324,-1.792953372001648,7.449185371398926,6.852027893066406,-0.667902410030365,1.9567655324935913,-2.2460289001464844
1785712350860771,401897644,-0.7143312096595764,-0.3850793242454529,0.16410472989082336,0.5608172416687012,-1.7947287559509277,7.459707736968994,6.857622146606445,-2.0895352363586426,1.4345097541809082,-1.9867771863937378
1785712350862199,401914311,-0.7142951488494873,-0.38507136702537537,0.16411752998828888,0.5608648061752319,-1.760947346687317,7.4389262199401855,6.844483852386475,-3.332827091217041,0.44849759340286255,-1.693934440612793
1785712350901174,401930978,-0.7142821550369263,-0.385007381439209,0.16409951448440552,0.5609305500984192,-1.7436383962631226,7.416190147399902,6.822508335113525,-3.8100426197052,0.3606075644493103,-1.7140401601791382
1785712350920310,401947645,-0.7143128514289856,-0.38489869236946106,0.16403062641620636,0.5609862804412842,-1.7443866729736328,7.389187812805176,6.814999580383301,-4.329148769378662,0.5129776000976562,-1.5805983543395996
1785712350921280,401964312,-0.7142871022224426,-0.38488176465034485,0.16402795910835266,0.5610313415527344,-1.7659664154052734,7.397564888000488,6.80318021774292,-3.461838722229004,0.5056908130645752,-1.6726503372192383
1785712350949960,401980979,-0.7142424583435059,-0.3848477303981781,0.16402938961982727,0.5611111521720886,-1.7661293745040894,7.362027168273926,6.765222072601318,-3.5174946784973145,0.31619521975517273,-1.8884886503219604
1785712350951456,401997646,-0.714082658290863,-0.38497841358184814,0.164144828915596,0.5611910820007324,-1.775848388671875,7.364470481872559,6.744053840637207,-1.9653778076171875,0.25591570138931274,-2.2148072719573975
1785712350981036,402014313,-0.7139447927474976,-0.38504457473754883,0.16419491171836853,0.5613065958023071,-1.8197757005691528,7.421530723571777,6.8033576011657715,-2.6317436695098877,0.258105605840683,-2.408388137817383
1785712350981950,402030980,-0.7138805389404297,-0.3849492073059082,0.16420218348503113,0.5614514946937561,-1.8103184700012207,7.457061290740967,6.7874250411987305,-3.816817283630371,-0.15324078500270844,-2.2011427879333496
1785712351034147,402047647,-0.713900089263916,-0.38470619916915894,0.16410760581493378,0.5616209506988525,-1.7845406532287598,7.435880661010742,6.809728145599365,-5.18394660949707,-0.18346378207206726,-2.0962073802948
1785712351034415,402064314,-0.7138916850090027,-0.384560763835907,0.1640685349702835,0.5617424845695496,-1.7998769283294678,7.435352802276611,6.8008222579956055,-4.362458229064941,0.015950310975313187,-1.9318891763687134
1785712351039884,402080981,-0.7139217257499695,-0.3843942880630493,0.1640220731496811,0.5618318319320679,-1.768998384475708,7.414302825927734,6.7970781326293945,-4.559175968170166,0.09724501520395279,-1.6222314834594727
1785712351070895,402097648,-0.7138967514038086,-0.3844136595726013,0.16403566300868988,0.5618464350700378,-1.7794276475906372,7.461987018585205,6.771824836730957,-3.186027765274048,0.6699705719947815,-1.5165663957595825
1785712351071840,402114315,-0.7139251828193665,-0.3843531906604767,0.16402187943458557,0.561855673789978,-1.770719289779663,7.457237720489502,6.775517463684082,-3.818047285079956,0.5632041096687317,-1.2631288766860962
1785712351100288,402130982,-0.7139296531677246,-0.3843943476676941,0.16404739022254944,0.5618143677711487,-1.782667636871338,7.4194746017456055,6.736384868621826,-3.0465664863586426,0.8721315860748291,-1.121887445449829
1785712351101799,402147649,-0.7139217257499695,-0.3844762146472931,0.16412165760993958,0.5617465972900391,-1.765354037284851,7.428053855895996,6.74745512008667,-2.5959625244140625,0.8428051471710205,-0.9555842280387878
1785712351130768,402164316,-0.7139561772346497,-0.38458487391471863,0.1641111820936203,0.5616316795349121,-1.7695095539093018,7.424389839172363,6.760466575622559,-2.8506805896759033,1.53900945186615,-0.8189660906791687
1785712351132057,402180983,-0.7140682339668274,-0.38461846113204956,0.163990780711174,0.5615013837814331,-1.8101954460144043,7.412633419036865,6.780549049377441,-3.8313651084899902,1.9156825542449951,-0.6459778547286987
1785712351161594,402197650,-0.7141472697257996,-0.38471564650535583,0.1638786941766739,0.561366856098175,-1.823575496673584,7.393579959869385,6.779386043548584,-3.394733428955078,2.095714807510376,-0.805698812007904
1785712351162713,402214317,-0.7141916751861572,-0.3848291337490082,0.16379615664482117,0.5612567663192749,-1.8185161352157593,7.382351398468018,6.76515007019043,-3.1362366676330566,1.914299726486206,-0.9987544417381287
1785712351190230,402230984,-0.7141984701156616,-0.3849984109401703,0.16375665366649628,0.5611435770988464,-1.8448295593261719,7.410458564758301,6.774827003479004,-2.5908658504486084,1.8771227598190308,-1.0809584856033325
1785712351220177,402247651,-0.7142074704170227,-0.38511744141578674,0.16368529200553894,0.5610712170600891,-1.8438340425491333,7.415151596069336,6.764854907989502,-3.0145509243011475,1.7416445016860962,-1.292685866355896
1785712351221818,402264318,-0.7142186760902405,-0.38523557782173157,0.16363047063350677,0.5609917044639587,-1.8242124319076538,7.424973964691162,6.84611177444458,-2.950378179550171,1.6784449815750122,-1.2098416090011597
1785712351249957,402280985,-0.7142417430877686,-0.38532018661499023,0.16357126832008362,0.5609215497970581,-1.808519721031189,7.407102108001709,6.813492774963379,-3.1748223304748535,1.5569000244140625,-1.1746240854263306
1785712351251267,402297652,-0.7142171263694763,-0.385464072227478,0.1635882705450058,0.5608490705490112,-1.7689989805221558,7.394781589508057,6.85098934173584,-2.460996389389038,1.3628709316253662,-1.217179536819458
1785712351294439,402314319,-0.7141728401184082,-0.3856298625469208,0.16360589861869812,0.5607863664627075,-1.775712490081787,7.406041622161865,6.7909417152404785,-2.310649871826172,1.4075908660888672,-1.3659125566482544
1785712351294946,402330986,-0.7140880227088928,-0.3857920169830322,0.16372956335544586,0.5607467293739319,-1.797335147857666,7.454108715057373,6.8692779541015625,-1.8367633819580078,0.7655572295188904,-1.3527731895446777
1785712351310126,402347653,-0.7140772342681885,-0.38573649525642395,0.16381584107875824,0.5607736706733704,-1.7874000072479248,7.448947906494141,6.8548173904418945,-3.320647716522217,0.01530999131500721,-1.2474281787872314
1785712351311374,402364320,-0.714089572429657,-0.38561710715293884,0.16394147276878357,0.5608030557632446,-1.794569730758667,7.396645545959473,6.854692459106445,-3.5470774173736572,-0.4030030369758606,-0.9880867600440979
1785712351339911,402380987,-0.7140896916389465,-0.38548263907432556,0.16406400501728058,0.5608596801757812,-1.7959892749786377,7.37087345123291,6.8793840408325195,-3.6296141147613525,-0.5390961170196533,-1.1629701852798462
1785712351370215,402397654,-0.7140375971794128,-0.3853650391101837,0.16425469517707825,0.5609511733055115,-1.801768183708191,7.366578578948975,6.856574535369873,-3.184170722961426,-0.9570696949958801,-1.3765161037445068
1785712351371208,402414321,-0.7139272093772888,-0.38526642322540283,0.16452732682228088,0.5610793828964233,-1.8059033155441284,7.399758338928223,6.847452163696289,-2.6612746715545654,-1.4432755708694458,-1.5800986289978027
1785712351424721,402430988,-0.7138124108314514,-0.38513943552970886,0.1648058444261551,0.5612307786941528,-1.7934004068374634,7.406832218170166,6.852015972137451,-2.7915923595428467,-1.641197919845581,-1.670562744140625
1785712351424989,402447655,-0.7137187719345093,-0.38493743538856506,0.16507112979888916,0.5614105463027954,-1.7833869457244873,7.414097785949707,6.798671722412109,-3.29744291305542,-1.9286106824874878,-1.6754674911499023
1785712351430131,402464322,-0.7136412262916565,-0.38470858335494995,0.1653306931257248,0.5615897178649902,-1.8024829626083374,7.409427165985107,6.774505615234375,-3.493636131286621,-1.974521279335022,-1.5971311330795288
1785712351431474,402480989,-0.713560938835144,-0.38444843888282776,0.1655977964401245,0.5617908239364624,-1.824465036392212,7.4263916015625,6.804287910461426,-3.6354668140411377,-2.1929850578308105,-1.6522880792617798
1785712351460081,402497656,-0.7134871482849121,-0.3841467797756195,0.16585221886634827,0.5620158314704895,-1.7750120162963867,7.435351371765137,6.773290157318115,-3.9319465160369873,-2.3478777408599854,-1.7341718673706055
1785712351462343,402514323,-0.7134160399436951,-0.38388049602508545,0.16611535847187042,0.5622103810310364,-1.7812711000442505,7.435233116149902,6.7386345863342285,-3.6962201595306396,-2.1741597652435303,-1.5967086553573608
1785712351489907,402530990,-0.7132989168167114,-0.38373863697052,0.16640052199363708,0.562371551990509,-1.7880911827087402,7.409182071685791,6.733287334442139,-2.8420236110687256,-1.7641773223876953,-1.692794680595398
1785712351520346,402547657,-0.7131465673446655,-0.38364967703819275,0.16669146716594696,0.5625391006469727,-1.792201280593872,7.422489643096924,6.754581451416016,-2.474634885787964,-1.636344075202942,-1.902319073677063
1785712351521306,402564324,-0.7130177021026611,-0.3835815191268921,0.16698545217514038,0.5626617670059204,-1.765740990638733,7.453989028930664,6.725248336791992,-2.3687903881073,-1.4285354614257812,-1.6092971563339233
1785712351555736,402580991,-0.7129709720611572,-0.38342732191085815,0.16717715561389923,0.5627692937850952,-1.753231167793274,7.4557719230651855,6.726144313812256,-3.386037588119507,-1.1273045539855957,-1.3896170854568481
1785712351555997,402597658,-0.7129423022270203,-0.38326287269592285,0.1673375517129898,0.5628698468208313,-1.7706488370895386,7.437710285186768,6.703352451324463,-3.5983541011810303,-0.9687493443489075,-1.3521842956542969
1785712351580909,402614325,-0.712864875793457,-0.38323208689689636,0.16753095388412476,0.5629314184188843,-1.7541320323944092,7.428274631500244,6.749821186065674,-2.641399621963501,-0.5724183320999146,-1.4241046905517578
1785712351581995,402630992,-0.7128002643585205,-0.38321453332901,0.16773229837417603,0.5629651546478271,-1.7417210340499878,7.421777725219727,6.738391876220703,-2.546273946762085,-0.47281044721603394,-1.2281033992767334
1785712351610714,402647659,-0.712734043598175,-0.3832955062389374,0.16793350875377655,0.5629338622093201,-1.7500272989273071,7.454327583312988,6.772800445556641,-1.984830617904663,0.08477164059877396,-1.024956226348877
1785712351612087,402664326,-0.7127441763877869,-0.3832283914089203,0.16807666420936584,0.5629239082336426,-1.760075330734253,7.503963947296143,6.794687747955322,-3.1614651679992676,-0.17497314512729645,-0.8227567672729492
1785712351640255,402680993,-0.7128238677978516,-0.3830736577510834,0.168164923787117,0.5629020929336548,-1.7297022342681885,7.451423645019531,6.800854206085205,-3.9734268188476562,-0.12514367699623108,-0.5370087623596191
1785712351687459,402697660,-0.712879478931427,-0.382986843585968,0.16824790835380554,0.5628660321235657,-1.7429360151290894,7.372028350830078,6.750039577484131,-3.580143451690674,0.1706894487142563,-0.653431236743927
1785712351687727,402714327,-0.7128318548202515,-0.3830512762069702,0.16843914985656738,0.5628251433372498,-1.7472503185272217,7.380336761474609,6.7478108406066895,-2.1410553455352783,0.11526355147361755,-0.9183304905891418
1785712351700358,402730994,-0.7127923369407654,-0.3831203281879425,0.1685488224029541,0.5627954602241516,-1.7333285808563232,7.428657054901123,6.775559425354004,-2.468423843383789,0.5175493955612183,-1.165134310722351
1785712351701705,402747661,-0.7127857804298401,-0.38308003544807434,0.16863955557346344,0.5628039240837097,-1.747657299041748,7.4442572593688965,6.8067307472229,-3.208144187927246,0.12187162786722183,-1.145284652709961
1785712351730456,402764328,-0.71280437707901,-0.3829973638057709,0.1686815619468689,0.562824010848999,-1.7399826049804688,7.4322004318237305,6.796000957489014,-3.6839137077331543,0.201424703001976,-1.180668830871582
1785712351731738,402780995,-0.7128154635429382,-0.3829091489315033,0.16876959800720215,0.5628436207771301,-1.7455233335494995,7.433942794799805,6.804678440093994,-3.5129995346069336,-0.05139188468456268,-1.0785892009735107
1785712351760653,402797662,-0.7128304839134216,-0.38282278180122375,0.168879896402359,0.562850296497345,-1.715065360069275,7.453750133514404,6.837070465087891,-3.411957263946533,-0.11003215610980988,-0.9445833563804626
1785712351762004,402814329,-0.7128913402557373,-0.3826853334903717,0.168973907828331,0.5628385543823242,-1.7197341918945312,7.458434104919434,6.803499221801758,-3.8222222328186035,-0.13522227108478546,-0.6653924584388733
1785712351819620,402830996,-0.7129355669021606,-0.38258227705955505,0.16909579932689667,0.5628158450126648,-1.7431970834732056,7.43661642074585,6.796293258666992,-3.4920735359191895,-0.12113525718450546,-0.6401253342628479
1785712351826403,402847663,-0.7129622101783752,-0.38251015543937683,0.16924355924129486,0.5627866983413696,-1.7294344902038574,7.440898418426514,6.781280994415283,-3.1855924129486084,-0.13655410706996918,-0.6440953016281128
1785712351826877,402864330,-0.7130036950111389,-0.38243991136550903,0.1693805605173111,0.5627405643463135,-1.7173291444778442,7.441035747528076,6.777557849884033,-3.2360494136810303,-0.014240660704672337,-0.5352926254272461
1785712351850183,402880997,-0.7130289673805237,-0.38239553570747375,0.16955138742923737,0.5626873970031738,-1.718946099281311,7.439810752868652,6.791637420654297,-2.9272239208221436,-0.081192247569561,-0.5046469569206238
1785712351852102,402897664,-0.7130374312400818,-0.38230469822883606,0.16973768174648285,0.5626822113990784,-1.7214734554290771,7.404146671295166,6.777814865112305,-3.106231451034546,-0.4814547598361969,-0.7115591764450073
1785712351880182,402914331,-0.7129998207092285,-0.38232311606407166,0.16992558538913727,0.5626606941223145,-1.7306079864501953,7.384577751159668,6.740466117858887,-2.4244210720062256,-0.06846274435520172,-0.9287548065185547
1785712351881798,402930998,-0.712958037853241,-0.3823739290237427,0.17008458077907562,0.5626308917999268,-1.7444493770599365,7.465301513671875,6.803544998168945,-2.3569188117980957,0.21100381016731262,-1.0180280208587646
1785712351910449,402947665,-0.7129988670349121,-0.3822093904018402,0.17020852863788605,0.5626534819602966,-1.7446163892745972,7.511435508728027,6.827298641204834,-3.8253469467163086,-0.4896252751350403,-0.8014086484909058
1785712351911827,402964332,-0.713049590587616,-0.381997674703598,0.17032285034656525,0.562698483467102,-1.7346673011779785,7.45196533203125,6.792582988739014,-4.147618293762207,-0.6663401126861572,-0.8408649563789368
1785712351950519,402980999,-0.7130643129348755,-0.3818592429161072,0.17050617933273315,0.5627182722091675,-1.7206648588180542,7.382462501525879,6.777473449707031,-3.3960392475128174,-0.7031710743904114,-0.7586994767189026
1785712351970545,402997666,-0.7129875421524048,-0.3818766474723816,0.17078319191932678,0.5627198815345764,-1.7304737567901611,7.385324478149414,6.784126281738281,-2.0061914920806885,-0.6154475808143616,-0.958683431148529
1785712351971942,403014333,-0.7128769159317017,-0.38187161087989807,0.17102859914302826,0.5627887845039368,-1.7107741832733154,7.422352313995361,6.806920051574707,-2.2286763191223145,-0.7736572027206421,-1.4844608306884766
1785712352000157,403031000,-0.7127655744552612,-0.381827712059021,0.17126023769378662,0.5628891587257385,-1.6998075246810913,7.431127548217773,6.804381847381592,-2.5060620307922363,-0.9340825080871582,-1.6283787488937378
1785712352001522,403047667,-0.7126940488815308,-0.3816632926464081,0.17142148315906525,0.5630420446395874,-1.679159164428711,7.426723480224609,6.81109094619751,-3.5365500450134277,-1.1362946033477783,-1.7719249725341797
1785712352030172,403064334,-0.7126139402389526,-0.3814793825149536,0.17159762978553772,0.5632146596908569,-1.6702446937561035,7.435171127319336,6.780897617340088,-3.5729458332061768,-1.3565893173217773,-1.8385562896728516
1785712352031809,403081001,-0.7125425338745117,-0.38125666975975037,0.1717374324798584,0.5634130239486694,-1.6510515213012695,7.419681549072266,6.79115629196167,-3.9589552879333496,-1.3785780668258667,-1.9807713031768799
1785712352081622,403097668,-0.7124665379524231,-0.3810843229293823,0.17187674343585968,0.5635833144187927,-1.666514277458191,7.441771030426025,6.748600006103516,-3.66827654838562,-1.1190190315246582,-1.921554446220398
1785712352081897,403114335,-0.712382435798645,-0.38094183802604675,0.17202477157115936,0.563740611076355,-1.659631609916687,7.482730865478516,6.780306339263916,-3.4523231983184814,-1.0124444961547852,-1.9050089120864868
1785712352089991,403131002,-0.7123646140098572,-0.38074973225593567,0.1720927655696869,0.5638720989227295,-1.6543132066726685,7.476292610168457,6.7700910568237305,-4.147451877593994,-0.6744847893714905,-1.6763384342193604
1785712352120484,403147669,-0.7123643159866333,-0.38056546449661255,0.17217203974723816,0.5639727115631104,-1.6495975255966187,7.468512058258057,6.741861820220947,-4.073673725128174,-0.5917173027992249,-1.4317370653152466
1785712352122497,403164336,-0.7123600840568542,-0.38045936822891235,0.17225804924964905,0.5640233755111694,-1.671971321105957,7.456575393676758,6.738830089569092,-3.5948712825775146,-0.19930525124073029,-1.2816212177276611
1785712352150573,403181003,-0.7123652100563049,-0.3803853988647461,0.17238840460777283,0.5640268325805664,-1.7050375938415527,7.466906547546387,6.747830390930176,-3.2362923622131348,-0.15174242854118347,-0.9286651611328125
1785712352151542,403197670,-0.7123820781707764,-0.38033953309059143,0.17249234020709991,0.5640047192573547,-1.6871265172958374,7.4756245613098145,6.768043518066406,-3.2013700008392334,0.17093275487422943,-0.8619058132171631
1785712352180044,403214337,-0.7124244570732117,-0.38030317425727844,0.17254920303821564,0.563958466053009,-1.6880707740783691,7.4408087730407715,6.767604827880859,-3.373384714126587,0.5256174802780151,-0.7823014855384827
1785712352211751,403231004,-0.7124664187431335,-0.3802802264690399,0.1725938320159912,0.5639070868492126,-1.680481195449829,7.427416801452637,6.776712894439697,-3.3478875160217285,0.6473162174224854,-0.8070305585861206
1785712352214550,403247671,-0.7125056385993958,-0.380252480506897,0.1726449429988861,0.5638606548309326,-1.6577279567718506,7.433788299560547,6.771299362182617,-3.3444933891296387,0.5808127522468567,-0.8179671764373779
1785712352215661,403264338,-0.7125402688980103,-0.38024818897247314,0.17264601588249207,0.5638193488121033,-1.6362783908843994,7.434354782104492,6.740681171417236,-3.4175150394439697,0.892993152141571,-1.025071382522583
1785712352239980,403281005,-0.7126132249832153,-0.3801972270011902,0.172582745552063,0.5637809038162231,-1.6026184558868408,7.430511951446533,6.7329559326171875,-3.999141216278076,1.071692943572998,-0.9969230890274048
1785712352270399,403297672,-0.7127020955085754,-0.38016465306282043,0.172476127743721,0.5637235045433044,-1.6347084045410156,7.4491777420043945,6.7615647315979,-4.096405506134033,1.429131031036377,-0.9798267483711243
1785712352271604,403314339,-0.7128063440322876,-0.3801034688949585,0.17236047983169556,0.5636682510375977,-1.6349036693572998,7.457957744598389,6.761042594909668,-4.314267635345459,1.3702476024627686,-0.919227123260498
1785712352299912,403331006,-0.7129356861114502,-0.38006022572517395,0.17220738530158997,0.5635805726051331,-1.6255792379379272,7.435388565063477,6.813742637634277,-4.396676540374756,1.7445515394210815,-0.7745281457901001
1785712352301357,403347673,-0.7130408883094788,-0.38011130690574646,0.1720135509967804,0.563472330570221,-1.6561254262924194,7.450073719024658,6.769304275512695,-4.006710052490234,2.329737901687622,-0.9944515228271484
1785712352345553,403364340,-0.7131368517875671,-0.38018596172332764,0.17185340821743011,0.5633493065834045,-1.676383137702942,7.4311933517456055,6.754822731018066,-3.7181825637817383,2.2930986881256104,-0.8948436379432678
1785712352346066,403381007,-0.7132159471511841,-0.3803260028362274,0.1717103123664856,0.5631983280181885,-1.727483868598938,7.461050987243652,6.768864154815674,-3.25295352935791,2.5129194259643555,-0.8596261739730835
1785712352360512,403397674,-0.7133229970932007,-0.3804110586643219,0.17155827581882477,0.5630514621734619,-1.7396695613861084,7.4626851081848145,6.802399158477783,-3.6356968879699707,2.3708713054656982,-0.7231360673904419
1785712352362193,403414341,-0.7134839296340942,-0.38035690784454346,0.17141316831111908,0.562928318977356,-1.7384755611419678,7.475226402282715,6.847981929779053,-4.461155414581299,1.7916145324707031,-0.4528581500053406
1785712352390090,403431008,-0.7136530876159668,-0.38033121824264526,0.17126961052417755,0.5627751350402832,-1.71566641330719,7.43338680267334,6.829799652099609,-4.300756931304932,1.9897421598434448,-0.29881060123443604
1785712352421438,403447675,-0.7137735486030579,-0.38036009669303894,0.17118367552757263,0.5626286268234253,-1.6897348165512085,7.3777875900268555,6.810029983520508,-3.691122531890869,1.8368338346481323,-0.44230568408966064
1785712352422281,403464342,-0.713760495185852,-0.3805871903896332,0.17119990289211273,0.5624867677688599,-1.6691006422042847,7.391545295715332,6.764932155609131,-1.9769290685653687,1.9325486421585083,-0.9439816474914551
1785712352475725,403481009,-0.713748574256897,-0.3807252049446106,0.17124329507350922,0.5623952746391296,-1.6174683570861816,7.458254814147949,6.845020771026611,-2.373823404312134,1.3319565057754517,-1.0092428922653198
1785712352475997,403497676,-0.7138169407844543,-0.3806966245174408,0.171209916472435,0.56233811378479,-1.5809814929962158,7.466428756713867,6.820104122161865,-3.734165668487549,1.0646497011184692,-0.877350389957428
1785712352480684,403514343,-0.7139461636543274,-0.38057273626327515,0.1711299568414688,0.5622822046279907,-1.6103684902191162,7.46950626373291,6.864019393920898,-4.544269561767578,0.9954696893692017,-0.653777003288269
1785712352481717,403531010,-0.7141447067260742,-0.3803056478500366,0.1709955930709839,0.5622517466545105,-1.6298391819000244,7.459290504455566,6.839871883392334,-5.666003227233887,0.7173029184341431,-0.4895227551460266
1785712352509893,403547677,-0.7143300771713257,-0.3800322711467743,0.17088352143764496,0.5622352361679077,-1.6727012395858765,7.384754657745361,6.821357250213623,-5.59491491317749,0.5410363078117371,-0.5406072735786438
1785712352511264,403564344,-0.7144086360931396,-0.3799576163291931,0.1708921641111374,0.5621830821037292,-1.7293179035186768,7.366807460784912,6.779201030731201,-3.829662799835205,0.6801965832710266,-0.6955513954162598
1785712352539909,403581011,-0.7144283652305603,-0.3799610435962677,0.17097137868404388,0.5621315836906433,-1.7405391931533813,7.432086944580078,6.835293292999268,-3.022439479827881,0.569248616695404,-0.830696702003479
1785712352570044,403597678,-0.7144750356674194,-0.37991684675216675,0.17100149393081665,0.5620930194854736,-1.7345774173736572,7.425868988037109,6.850813388824463,-3.5308005809783936,0.6249563097953796,-0.8682065606117249
1785712352571338,403614345,-0.7145514488220215,-0.3797929286956787,0.17096289992332458,0.5620912313461304,-1.7226266860961914,7.3951263427734375,6.809865474700928,-4.306928634643555,0.5898667573928833,-1.0153257846832275
1785712352608100,403631012,-0.7145824432373047,-0.3797298073768616,0.17096246778964996,0.5620948076248169,-1.7410304546356201,7.397737979888916,6.78909969329834,-3.749892234802246,0.5674046277999878,-1.1956521272659302
1785712352608361,403647679,-0.7145681977272034,-0.37966883182525635,0.1710071861743927,0.5621404647827148,-1.7077322006225586,7.422699928283691,6.784397125244141,-3.494917154312134,0.18900251388549805,-1.460730791091919
1785712352630389,403664346,-0.7145472168922424,-0.37963953614234924,0.17104654014110565,0.5621748566627502,-1.6741658449172974,7.4360270500183105,6.770735740661621,-3.3283190727233887,0.35779017210006714,-1.4781088829040527
1785712352631966,403681013,-0.7145483493804932,-0.37958142161369324,0.1710645854473114,0.5622072219848633,-1.6684767007827759,7.434103488922119,6.797904014587402,-3.608330488204956,0.38651490211486816,-1.4101330041885376
1785712352660127,403697680,-0.71458899974823,-0.3794987201690674,0.17107164859771729,0.5622091889381409,-1.641948938369751,7.446542739868164,6.80206823348999,-3.8366804122924805,0.46048441529273987,-1.1094653606414795
1785712352661809,403714347,-0.7146768569946289,-0.3794007897377014,0.1710037738084793,0.5621841549873352,-1.5971598625183105,7.469868183135986,6.81847620010376,-4.292855262756348,0.9096413850784302,-0.9702218770980835
1785712352690338,403731014,-0.7147425413131714,-0.3793867528438568,0.17096707224845886,0.5621213316917419,-1.5939218997955322,7.44570255279541,6.805135726928711,-3.6587235927581787,1.157393217086792,-0.8803598284721375
1785712352740864,403747681,-0.7148261070251465,-0.3793507516384125,0.17094315588474274,0.5620465278625488,-1.613309383392334,7.421377658843994,6.790989875793457,-3.748790740966797,1.0537513494491577,-0.6990858912467957
1785712352741126,403764348,-0.7148430347442627,-0.3794440031051636,0.17094486951828003,0.5619617104530334,-1.6137226819992065,7.401147365570068,6.783694267272949,-2.8290762901306152,1.3743455410003662,-0.9935933947563171
1785712352750514,403781015,-0.7148692011833191,-0.3795279860496521,0.17093507945537567,0.5618746280670166,-1.6542145013809204,7.4101433753967285,6.799310684204102,-2.941439628601074,1.4218571186065674,-0.9589011669158936
1785712352751760,403797682,-0.7149269580841064,-0.37959593534469604,0.1708589494228363,0.5617783069610596,-1.6761873960494995,7.447038173675537,6.772908687591553,-3.3477983474731445,1.7402615547180176,-0.9556868076324463
1785712352780748,403814349,-0.7150344848632812,-0.3796312212944031,0.1706906408071518,0.5616689920425415,-1.6886330842971802,7.42044734954834,6.759317398071289,-3.9768075942993164,2.1545212268829346,-0.9005681276321411
1785712352781967,403831016,-0.7151028513908386,-0.37978219985961914,0.17052137851715088,0.5615312457084656,-1.7292702198028564,7.402917861938477,6.749204635620117,-3.2769782543182373,2.642404556274414,-1.0468165874481201
1785712352810548,403847683,-0.7151297926902771,-0.3799683451652527,0.17038846015930176,0.5614113807678223,-1.7860107421875,7.385743141174316,6.746561527252197,-2.8790087699890137,2.503814697265625,-1.2376313209533691
1785712352811883,403864350,-0.7151088714599609,-0.38023656606674194,0.17027825117111206,0.56128990650177,-1.7737854719161987,7.405627727508545,6.767764568328857,-2.257657289505005,2.651292562484741,-1.455864429473877
1785712352840102,403881017,-0.7151359915733337,-0.3804328739643097,0.17006327211856842,0.5611875653266907,-1.7487586736679077,7.449593544006348,6.793999671936035,-3.1638214588165283,2.8907582759857178,-1.5555105209350586
1785712352873530,403897684,-0.7151583433151245,-0.3806459903717041,0.16983819007873535,0.5610826015472412,-1.6894323825836182,7.4604268074035645,6.795229434967041,-3.1035425662994385,3.0129823684692383,-1.6042132377624512
1785712352874128,403914351,-0.7152007818222046,-0.38082972168922424,0.16963554918766022,0.5609651803970337,-1.673584222793579,7.466370582580566,6.836368083953857,-3.2002816200256348,2.8479466438293457,-1.376644253730774
1785712352900045,403931018,-0.7152417302131653,-0.38100549578666687,0.16949865221977234,0.5608348846435547,-1.6371039152145386,7.486283779144287,6.853414058685303,-2.967142105102539,2.531245708465576,-1.1328243017196655
1785712352901219,403947685,-0.7152972221374512,-0.38113510608673096,0.16939790546894073,0.5607064962387085,-1.633878469467163,7.46907377243042,6.8881940841674805,-3.095231056213379,2.185384511947632,-0.9391281604766846
1785712352930075,403964352,-0.7153884768486023,-0.38118427991867065,0.16933079063892365,0.560576856136322,-1.637710690498352,7.431422233581543,6.891071796417236,-3.4526050090789795,1.7491874694824219,-0.6156397461891174
1785712352931221,403981019,-0.7154724597930908,-0.38123229146003723,0.1693059653043747,0.5604445934295654,-1.663621425628662,7.389963626861572,6.869222164154053,-3.2737643718719482,1.5396625995635986,-0.5119210481643677
1785712352960939,403997686,-0.7155224680900574,-0.38125887513160706,0.16930782794952393,0.5603620409965515,-1.7007867097854614,7.3909454345703125,6.882817268371582,-3.245718002319336,1.1556130647659302,-0.797195315361023
1785712352962925,404014353,-0.7155818939208984,-0.3811971843242645,0.16928929090499878,0.5603338479995728,-1.7194079160690308,7.370364189147949,6.8579535484313965,-3.8435447216033936,0.788314163684845,-0.9756646752357483
1785712353000337,404031020,-0.7155988216400146,-0.381104052066803,0.16931787133216858,0.5603667497634888,-1.7697124481201172,7.369543552398682,6.839569568634033,-3.775491714477539,0.2256799340248108,-1.2858984470367432
1785712353020233,404047687,-0.7156044840812683,-0.3809187114238739,0.16935540735721588,0.5604742765426636,-1.7563066482543945,7.401012420654297,6.829184532165527,-4.253309726715088,-0.385483980178833,-1.5640908479690552
1785712353021939,404064354,-0.7156075835227966,-0.38071712851524353,0.16937729716300964,0.5606006979942322,-1.7286854982376099,7.424302101135254,6.811241626739502,-4.40730619430542,-0.4217643439769745,-1.6897083520889282
1785712353050268,404081021,-0.7156462669372559,-0.3804299831390381,0.16936062276363373,0.5607512593269348,-1.6968108415603638,7.4349470138549805,6.810439586639404,-5.0982208251953125,-0.5811906456947327,-1.6639037132263184
1785712353051759,404097688,-0.7156957983970642,-0.3801531195640564,0.1693432331085205,0.5608809590339661,-1.6977324485778809,7.438005447387695,6.775611400604248,-5.055294513702393,-0.4681874215602875,-1.5378507375717163
1785712353079930,404114355,-0.7157074809074402,-0.3799842596054077,0.1693829596042633,0.5609685778617859,-1.648431658744812,7.434861183166504,6.76595401763916,-4.154495716094971,-0.2732362747192383,-1.455134391784668
1785712353081572,404131022,-0.7157045602798462,-0.37991440296173096,0.16946692764759064,0.5609942078590393,-1.6354011297225952,7.461784839630127,6.755749225616455,-3.3849360942840576,0.033981651067733765,-1.2094701528549194
1785712353131414,404147689,-0.7157281041145325,-0.3798608183860779,0.16952167451381683,0.5609838962554932,-1.6424074172973633,7.446853160858154,6.76007604598999,-3.4466497898101807,0.37137776613235474,-1.0214858055114746
1785712353131685,404164356,-0.7157854437828064,-0.3797944188117981,0.16952449083328247,0.5609549283981323,-1.6750075817108154,7.4590888023376465,6.771200656890869,-3.775146007537842,0.6621716618537903,-0.9205206036567688
1785712353139919,404181023,-0.7158641219139099,-0.3797224462032318,0.16950513422489166,0.5609090328216553,-1.7308281660079956,7.4506754875183105,6.78256893157959,-3.925081729888916,0.8228654861450195,-0.8069664835929871
1785712353170326,404197690,-0.7159751057624817,-0.3796292245388031,0.1694680154323578,0.5608417391777039,-1.7524360418319702,7.4078240394592285,6.779530048370361,-4.157594680786133,0.9204756617546082,-0.6038706302642822
1785712353171792,404214357,-0.7160494327545166,-0.3796525001525879,0.16943711042404175,0.5607404112815857,-1.7648009061813354,7.367406845092773,6.793705940246582,-3.4236879348754883,1.380979061126709,-0.6958714127540588
1785712353200568,404231024,-0.7161081433296204,-0.3797488510608673,0.16940435767173767,0.5606099963188171,-1.7495286464691162,7.376363754272461,6.793952941894531,-2.994060516357422,1.7218201160430908,-0.7061421275138855
1785712353202592,404247691,-0.7161235213279724,-0.379890114068985,0.16937558352947235,0.5605034232139587,-1.7157047986984253,7.41191291809082,6.800778388977051,-2.6734790802001953,1.7598679065704346,-1.0281065702438354
1785712353230054,404264358,-0.7161731719970703,-0.3799477815628052,0.16926342248916626,0.5604348182678223,-1.634838342666626,7.418266773223877,6.785175800323486,-3.541083574295044,1.8020645380020142,-1.1987895965576172
1785712353257201,404281025,-0.7162050008773804,-0.38004398345947266,0.16919855773448944,0.5603484511375427,-1.633995532989502,7.414025783538818,6.775265693664551,-3.1021976470947266,1.7414652109146118,-1.1052392721176147
1785712353262701,404297692,-0.7162742614746094,-0.38008570671081543,0.1690719574689865,0.560269832611084,-1.6487374305725098,7.459388256072998,6.847078800201416,-3.7146739959716797,1.8608204126358032,-1.1002320051193237
1785712353263189,404314359,-0.7164008021354675,-0.3800203204154968,0.16892217099666595,0.5601974129676819,-1.655216932296753,7.456540584564209,6.841085433959961,-4.487536907196045,1.6077666282653809,-0.8473321199417114
1785712353289943,404331026,-0.7165614366531372,-0.37993156909942627,0.16877591609954834,0.560096263885498,-1.671439528465271,7.45751953125,6.834896564483643,-4.643928050994873,1.615309715270996,-0.5399157404899597
1785712353319905,404347693,-0.7167209386825562,-0.3798322081565857,0.16866697371006012,0.5599923133850098,-1.6814229488372803,7.411135196685791,6.837884426116943,-4.547394275665283,1.401341438293457,-0.4143751263618469
1785712353321276,404364360,-0.7167927622795105,-0.379904568195343,0.1686633974313736,0.5598523616790771,-1.7306721210479736,7.369675159454346,6.826801776885986,-3.0227081775665283,1.534066081047058,-0.4999598264694214
1785712353350622,404381027,-0.7168298959732056,-0.3799312710762024,0.1687031388282776,0.5597747564315796,-1.7388458251953125,7.390109062194824,6.848766803741455,-3.063342571258545,0.9437318444252014,-0.7769996523857117
1785712353352064,404397694,-0.7168834209442139,-0.3799304664134979,0.16868329048156738,0.559712827205658,-1.7368942499160767,7.359767436981201,6.811577796936035,-3.4880781173706055,1.1079349517822266,-0.9176773428916931
1785712353380272,404414361,-0.7169387340545654,-0.3799232840538025,0.16862623393535614,0.5596640110015869,-1.7344509363174438,7.438525676727295,6.890510559082031,-3.683452844619751,1.238611102104187,-1.0579583644866943
1785712353381659,404431028,-0.7171282768249512,-0.3796229958534241,0.1684754192829132,0.5596703290939331,-1.7163867950439453,7.464261054992676,6.815107822418213,-5.903177738189697,0.5743584632873535,-0.7247626781463623
1785712353410797,404447695,-0.7172832489013672,-0.3794091045856476,0.16839925944805145,0.5596397519111633,-1.6808738708496094,7.385383129119873,6.8184590339660645,-5.056139945983887,0.5975507497787476,-0.5775280594825745
1785712353411581,404464362,-0.7173601388931274,-0.37934330105781555,0.16842199862003326,0.5595788359642029,-1.649141550064087,7.397983551025391,6.8017377853393555,-3.706632375717163,0.6699963212013245,-0.6358097791671753
1785712353439904,404481029,-0.7174242734909058,-0.37934812903404236,0.16848263144493103,0.559475302696228,-1.6270296573638916,7.460338592529297,6.808312892913818,-3.128603935241699,0.8470055460929871,-0.4676494598388672
1785712353470338,404497696,-0.7175615429878235,-0.37931087613105774,0.16834619641304016,0.559365451335907,-1.635084629058838,7.465549945831299,6.884851455688477,-4.2776031494140625,1.7715986967086792,-0.6176247000694275
1785712353471444,404514363,-0.717740535736084,-0.37933871150016785,0.16805510222911835,0.5592045187950134,-1.6989107131958008,7.383443832397461,6.86189603805542,-4.602180004119873,2.9611804485321045,-0.685242235660553
1785712353504846,404531030,-0.7176543474197388,-0.37948641180992126,0.16833992302417755,0.5591292977333069,-1.810431957244873,7.322542190551758,6.8488874435424805,-1.202823519706726,0.05220508575439453,-0.7614655494689941
1785712353505111,404547697,-0.7176875472068787,-0.37925058603286743,0.1685648411512375,0.5591790676116943,-1.7752752304077148,7.316966533660889,7.006961345672607,-3.780153274536133,-1.319374442100525,-0.635233461856842
1785712353530897,404564364,-0.7179571390151978,-0.37899142503738403,0.1684540957212448,0.5590417981147766,-1.7531468868255615,7.25685977935791,7.011125087738037,-5.586181640625,1.0107988119125366,0.3529494106769562
1785712353532159,404581031,-0.7184739708900452,-0.3783935308456421,0.16802965104579926,0.558910608291626,-1.8048585653305054,7.332971572875977,6.9054460525512695,-9.113987922668457,1.5268951654434204,0.8477357625961304
1785712353560102,404597698,-0.7187779545783997,-0.37806394696235657,0.1676938533782959,0.5588435530662537,-1.782030463218689,7.480679035186768,6.980276107788086,-6.9680891036987305,1.70159912109375,-0.3642254173755646
1785712353561398,404614365,-0.7193260788917542,-0.37728434801101685,0.16695447266101837,0.5588864684104919,-1.5358366966247559,7.432939529418945,6.976222038269043,-11.50357723236084,1.969521403312683,-0.5003955364227295
1785712353589954,404631032,-0.7196491956710815,-0.37738966941833496,0.16631153225898743,0.5585908889770508,-1.6446675062179565,7.3949480056762695,6.875218391418457,-5.782105922698975,5.510976791381836,-0.4530118703842163
1785712353637167,404647699,-0.7194028496742249,-0.3784693777561188,0.16622713208198547,0.5582028031349182,-1.732706904411316,7.455112457275391,7.269973278045654,2.767357110977173,6.074265003204346,-1.8499162197113037
1785712353637487,404664366,-0.7188125252723694,-0.3799991309642792,0.16618676483631134,0.5579358339309692,-1.805489182472229,7.308966159820557,7.467928409576416,5.917720794677734,6.874239921569824,-4.172784328460693
1785712353649882,404681033,-0.7178707122802734,-0.38191938400268555,0.16629353165626526,0.557805597782135,-1.7866153717041016,7.24398136138916,7.752919673919678,9.17695140838623,6.889736652374268,-6.260284900665283
1785712353651237,404697700,-0.7165924310684204,-0.3841516971588135,0.16653141379356384,0.5578452348709106,-1.7919334173202515,7.627686977386475,7.99989652633667,11.911727905273438,6.617924213409424,-8.402830123901367
1785712353680314,404714367,-0.7155933380126953,-0.3854866921901703,0.16636325418949127,0.5582569241523743,-1.9049450159072876,7.701006889343262,8.03349494934082,4.773677825927734,4.506921768188477,-9.209138870239258
1785712353681514,404731034,-0.7141098976135254,-0.38713401556015015,0.16656391322612762,0.5589563250541687,-2.3099582195281982,7.406269073486328,7.8955817222595215,8.683536529541016,2.5762100219726562,-11.861927032470703
1785712353711615,404747701,-0.7119390368461609,-0.38928771018981934,0.16751649975776672,0.5599443316459656,-2.3960623741149902,7.243014812469482,8.215328216552734,15.56074333190918,-0.7281445264816284,-14.504570960998535
1785712353712337,404764368,-0.7091464996337891,-0.39259058237075806,0.16886398196220398,0.5607766509056091,-2.3227462768554688,6.83586311340332,7.866753578186035,24.555103302001953,1.4642119407653809,-16.40462303161621
1785712353769755,404781035,-0.7048996686935425,-0.3979191184043884,0.17133371531963348,0.5616255402565002,-2.343367338180542,7.118858814239502,8.154372215270996,42.669029235839844,2.0668907165527344,-21.41332244873047
1785712353774302,404797702,-0.7005388736724854,-0.40351977944374084,0.1730821132659912,0.5625489354133606,-2.153162956237793,7.560467720031738,8.472053527832031,41.431114196777344,6.270391941070557,-24.51291275024414
1785712353774781,404814369,-0.6984822154045105,-0.40652069449424744,0.1720663160085678,0.5632569789886475,-2.2595582008361816,7.337061882019043,10.525691986083984,12.08847427368164,12.875157356262207,-19.135997772216797
1785712353800817,404831036,-0.6987982988357544,-0.40847381949424744,0.16812613606452942,0.5626412630081177,-4.478266716003418,7.766363143920898,7.808122634887695,-9.327884674072266,29.374526977539062,-10.52180004119873
1785712353802388,404847703,-0.6972919702529907,-0.41173797845840454,0.16422541439533234,0.5632826089859009,-5.900118827819824,8.193669319152832,8.778475761413574,0.7970393896102905,28.604917526245117,-25.016605377197266
1785712353832003,404864370,-0.6979078650474548,-0.4080210030078888,0.15623028576374054,0.5674830079078674,-4.3181681632995605,8.993795394897461,9.555368423461914,-58.549072265625,13.503887176513672,-37.56560516357422
1785712353832559,404881037,-0.6993218660354614,-0.40361806750297546,0.14741556346416473,0.571236789226532,-3.66559100151062,8.651881217956543,8.403010368347168,-66.79168701171875,16.863128662109375,-33.86850357055664
1785712353861994,404897704,-0.6994935870170593,-0.3997984528541565,0.13680660724639893,0.5763292908668518,-3.9695990085601807,8.718603134155273,9.771957397460938,-68.94232177734375,22.811790466308594,-50.74744415283203
1785712353862548,404914371,-0.7000579833984375,-0.394348680973053,0.12284832447767258,0.5825098752975464,-3.6603145599365234,8.99940299987793,9.139460563659668,-92.15458679199219,29.83153533935547,-62.09280014038086
1785712353903709,404931038,-0.7002924680709839,-0.3897034525871277,0.10737574100494385,0.5883821249008179,-4.228712558746338,8.41600513458252,8.628205299377441,-93.19465637207031,40.89745330810547,-66.71527862548828
1785712353920219,404947705,-0.6999737620353699,-0.38444364070892334,0.09076453000307083,0.5949816703796387,-4.640705585479736,7.854265213012695,9.00732135772705,-99.81888580322266,41.53968048095703,-75.03942108154297
1785712353921301,404964372,-0.6987991333007812,-0.37896955013275146,0.07357987761497498,0.6022037267684937,-4.555885314941406,7.622239112854004,8.811452865600586,-101.32705688476562,41.246524810791016,-82.91609191894531
1785712353950487,404981039,-0.6966662406921387,-0.3737988770008087,0.05634865537285805,0.6097185611724854,-4.262321472167969,7.73218297958374,8.787191390991211,-97.71640014648438,41.473960876464844,-88.56121826171875
1785712353952436,404997706,-0.6944110989570618,-0.36787357926368713,0.03782358393073082,0.6172788143157959,-3.950831651687622,7.817594528198242,8.755500793457031,-106.46773529052734,44.34389114379883,-92.320556640625
1785712353980159,405014373,-0.6925271153450012,-0.36032935976982117,0.017516836524009705,0.6247109770774841,-4.264730453491211,7.5395283699035645,8.561675071716309,-122.67189025878906,46.41040802001953,-94.21528625488281
1785712353981621,405031040,-0.6904821395874023,-0.351184219121933,-0.003726015333086252,0.632370114326477,-4.8375139236450195,7.017623424530029,8.460580825805664,-133.95501708984375,43.41006851196289,-98.11043548583984
