host_t_us,sensor_t_us,qw,qx,qy,qz,ax,ay,az,gx,gy,gz
1785712344947424,395570873,0.45098891854286194,-0.42804601788520813,-0.229214146733284,-0.7488974332809448,8.55344295501709,-0.45927220582962036,5.3328046798706055,0.10270051658153534,0.27016910910606384,0.8242998719215393
1785712344949551,395587540,0.4510956406593323,-0.427924245595932,-0.22939550876617432,-0.748847246170044,8.554045677185059,-0.45110318064689636,5.343388080596924,2.0548622608184814,0.26286953687667847,0.5978196263313293
1785712345012889,395604207,0.4512760639190674,-0.4277222752571106,-0.22966015338897705,-0.7487727403640747,8.512885093688965,-0.35190168023109436,5.35051965713501,3.012489080429077,0.46107983589172363,0.6963068842887878
1785712345013569,395620874,0.45137473940849304,-0.4276365637779236,-0.22970610857009888,-0.7487481832504272,8.51878833770752,-0.27928996086120605,5.411655426025391,1.1787923574447632,0.5598999857902527,0.9294655919075012
1785712345015083,395637541,0.45132046937942505,-0.4278000593185425,-0.22950442135334015,-0.748749315738678,8.560620307922363,-0.3628714680671692,5.3892903327941895,-1.344641089439392,-0.12084073573350906,1.1938145160675049
1785712345015326,395654208,0.4512198567390442,-0.4278866648674011,-0.22930693626403809,-0.748820960521698,8.535138130187988,-0.46249863505363464,5.3366193771362305,-1.377310037612915,0.3983478844165802,0.5744864344596863
1785712345037336,395670875,0.4512255787849426,-0.4279065430164337,-0.2292405664920807,-0.7488264441490173,8.531832695007324,-0.43417948484420776,5.341690540313721,-0.1003633514046669,0.30929896235466003,0.8233457803726196
1785712345067098,395687542,0.4513111114501953,-0.4278836250305176,-0.22920557856559753,-0.7487987875938416,8.55233097076416,-0.3829250931739807,5.329034328460693,0.5329938530921936,0.457897424697876,1.2083110809326172
1785712345069060,395704209,0.4513501226902008,-0.42788490653038025,-0.22916659712791443,-0.7487863898277283,8.566219329833984,-0.3846123516559601,5.359437942504883,0.28610020875930786,0.3169379234313965,0.9768618941307068
1785712345097087,395720876,0.4513275623321533,-0.4279169738292694,-0.22916175425052643,-0.7487831115722656,8.543126106262207,-0.40118607878685,5.365090370178223,0.11221563071012497,-0.014816946350038052,0.544622004032135
1785712345099102,395737543,0.4513089954853058,-0.42797988653182983,-0.22917574644088745,-0.7487541437149048,8.530438423156738,-0.3652164041996002,5.375568866729736,0.1563207060098648,-0.3006034195423126,0.632076621055603
1785712345148423,395754210,0.451321005821228,-0.42801758646965027,-0.22910672426223755,-0.7487465143203735,8.527007102966309,-0.3842517137527466,5.341630935668945,-0.08905535191297531,0.19496385753154755,0.9564678072929382
1785712345148981,395770877,0.4513642489910126,-0.42805910110473633,-0.22900938987731934,-0.7487263679504395,8.563457489013672,-0.38468778133392334,5.362752437591553,-0.11486013233661652,0.2745233178138733,1.2573977708816528
1785712345157083,395787544,0.4513970911502838,-0.4280298054218292,-0.2289978712797165,-0.7487268447875977,8.554672241210938,-0.44310107827186584,5.32943058013916,0.4833948612213135,0.4169427156448364,0.7759687304496765
1785712345159062,395804211,0.45140746235847473,-0.42794352769851685,-0.22916200757026672,-0.7487197518348694,8.50735092163086,-0.4158952534198761,5.360449314117432,1.4731463193893433,0.1101025864481926,0.05415164679288864
1785712345187622,395820878,0.4514109790325165,-0.427887499332428,-0.22933654487133026,-0.7486962676048279,8.524860382080078,-0.36390554904937744,5.363400936126709,1.482815146446228,-0.13953797519207,0.11386766284704208
1785712345217076,395837545,0.4514157474040985,-0.42786017060279846,-0.22934813797473907,-0.7487054467201233,8.544270515441895,-0.32326409220695496,5.347506523132324,0.5290622711181641,0.3155164420604706,0.5562885999679565
1785712345218958,395854212,0.4513823390007019,-0.42786934971809387,-0.22923409938812256,-0.7487552762031555,8.567529678344727,-0.36322200298309326,5.370574474334717,-0.42499151825904846,0.5776367783546448,0.6496596336364746
1785712345247067,395870879,0.45133519172668457,-0.4279167652130127,-0.22912010550498962,-0.7487914562225342,8.55439281463623,-0.41964760422706604,5.379087448120117,-0.5781811475753784,0.31966572999954224,0.6726983785629272
1785712345248990,395887546,0.451333612203598,-0.42794740200042725,-0.2290985882282257,-0.7487813830375671,8.522891998291016,-0.4341408312320709,5.360162734985352,0.13139954209327698,0.0557396337389946,0.7363458871841431
1785712345282316,395904213,0.4513980448246002,-0.42795640230178833,-0.22907313704490662,-0.7487452030181885,8.535515785217285,-0.42806217074394226,5.328998565673828,0.4095662832260132,0.20737965404987335,1.1315370798110962
1785712345282794,395920880,0.4514930248260498,-0.4279666543006897,-0.22901713848114014,-0.7486993074417114,8.591188430786133,-0.4297637343406677,5.319705963134766,0.41380512714385986,0.3113671839237213,1.4483404159545898
1785712345307079,395937547,0.4515552520751953,-0.4279381036758423,-0.22900652885437012,-0.7486812472343445,8.573809623718262,-0.419186532497406,5.2962799072265625,0.5381420850753784,0.4055323004722595,0.9433093070983887
1785712345308768,395954214,0.4515751600265503,-0.4279178977012634,-0.22903497517108917,-0.7486721873283386,8.526345252990723,-0.393220990896225,5.36348819732666,0.6418478488922119,0.1978388875722885,0.6364947557449341
1785712345337291,395970881,0.45157983899116516,-0.42794087529182434,-0.2290482074022293,-0.7486522197723389,8.53891372680664,-0.36561354994773865,5.355338096618652,0.38522782921791077,-0.0323360338807106,0.6939632296562195
1785712345367073,395987548,0.45154550671577454,-0.42797720432281494,-0.22891461849212646,-0.7486929893493652,8.516756057739258,-0.3683149814605713,5.3826904296875,-0.5344858169555664,0.46734848618507385,0.8114550709724426
1785712345369464,396004215,0.4515228271484375,-0.42806971073150635,-0.22869758307933807,-0.748720109462738,8.510893821716309,-0.3766627311706543,5.393660068511963,-1.1464885473251343,0.41864603757858276,1.208836317062378
1785712345414557,396020882,0.451531320810318,-0.4281580448150635,-0.22845983505249023,-0.7487370371818542,8.564796447753906,-0.42565613985061646,5.338475227355957,-1.0021225214004517,0.5168322324752808,1.534949779510498
1785712345415055,396037549,0.4515393078327179,-0.4281559884548187,-0.2283216416835785,-0.7487754225730896,8.563719749450684,-0.4581752419471741,5.313992023468018,-0.38693106174468994,0.7433509826660156,0.9438214898109436
1785712345427078,396054216,0.45153993368148804,-0.42809656262397766,-0.2284163236618042,-0.7487802505493164,8.522220611572266,-0.46927016973495483,5.312366008758545,1.050203800201416,0.203627347946167,0.251548707485199
1785712345428966,396070883,0.4515642523765564,-0.42800334095954895,-0.22866269946098328,-0.7487437129020691,8.518304824829102,-0.43485257029533386,5.327836990356445,1.9265040159225464,-0.1704397052526474,-0.08498293906450272
1785712345457082,396087550,0.45157358050346375,-0.4279540777206421,-0.22881481051445007,-0.7487198114395142,8.53913688659668,-0.40471336245536804,5.383835792541504,1.3469270467758179,-0.09612447023391724,0.2092621624469757
1785712345458992,396104217,0.45159193873405457,-0.42792993783950806,-0.2287762612104416,-0.7487342953681946,8.527012825012207,-0.42373278737068176,5.361276149749756,0.26071810722351074,0.49358880519866943,0.7414556741714478
1785712345488270,396120884,0.4516231417655945,-0.4278854727745056,-0.22867244482040405,-0.7487725615501404,8.529755592346191,-0.39832744002342224,5.371706962585449,-0.0118330679833889,0.8907841444015503,0.8934222459793091
1785712345547985,396137551,0.4516506791114807,-0.42784446477890015,-0.22859644889831543,-0.7488026022911072,8.551745414733887,-0.38890355825424194,5.348413944244385,0.0612463653087616,0.7600504159927368,0.7860216498374939
1785712345549016,396154218,0.45164209604263306,-0.42778462171554565,-0.22860443592071533,-0.7488396167755127,8.558304786682129,-0.37126800417900085,5.341738224029541,0.47498106956481934,0.5577484965324402,0.32638901472091675
1785712345552997,396170885,0.4515811800956726,-0.4278038442134857,-0.22864602506160736,-0.7488526701927185,8.518528938293457,-0.3622164726257324,5.398914337158203,0.2620627284049988,-0.10520415753126144,0.14202880859375
1785712345554355,396187552,0.4514961242675781,-0.4278624951839447,-0.2286667376756668,-0.748863935470581,8.481475830078125,-0.38629135489463806,5.390653610229492,-0.0029966856818646193,-0.2883349359035492,0.1670140027999878
1785712345577086,396204219,0.4514312744140625,-0.42789486050605774,-0.22859236598014832,-0.7489073276519775,8.489916801452637,-0.38541850447654724,5.382571697235107,-0.4344938099384308,0.27038687467575073,0.38914018869400024
1785712345579377,396220886,0.451402485370636,-0.4279332160949707,-0.2284659594297409,-0.7489413619041443,8.533763885498047,-0.4302418828010559,5.389652729034424,-0.4702107310295105,0.4235764145851135,0.8457249402999878
1785712345607095,396237553,0.4514482319355011,-0.4279133975505829,-0.22845788300037384,-0.7489275932312012,8.568641662597656,-0.4441851079463959,5.340898036956787,0.5343641042709351,0.3360193967819214,0.8895994424819946
1785712345609161,396254220,0.4515035152435303,-0.42781803011894226,-0.22859348356723785,-0.748907208442688,8.551149368286133,-0.42751815915107727,5.3184943199157715,1.582269310951233,0.2729225158691406,0.4387904107570648
1785712345637326,396270887,0.45151421427726746,-0.4277840256690979,-0.22874756157398224,-0.7488731741905212,8.519801139831543,-0.34111830592155457,5.324367523193359,1.2978788614273071,-0.20664329826831818,0.2453632652759552
1785712345680263,396287554,0.45147207379341125,-0.4278761148452759,-0.2286691516637802,-0.7488698959350586,8.561688423156738,-0.331316202878952,5.338477611541748,-0.47511565685272217,-0.12775614857673645,0.7715377807617188
1785712345680800,396304221,0.45141229033470154,-0.4280262589454651,-0.22840681672096252,-0.7489001154899597,8.603875160217285,-0.4160660207271576,5.354977607727051,-1.712414026260376,0.2154860496520996,1.206620693206787
1785712345697100,396320888,0.4513868987560272,-0.4281182587146759,-0.2282043695449829,-0.7489247918128967,8.526697158813477,-0.5118561387062073,5.348687171936035,-1.0650017261505127,0.3639757037162781,1.162528395652771
1785712345699338,396337555,0.4514279067516327,-0.4281078279018402,-0.2282726913690567,-0.7488850951194763,8.482467651367188,-0.5184357166290283,5.3636627197265625,0.9638378620147705,-0.03517904132604599,0.7581934928894043
1785712345727149,396354222,0.4515388309955597,-0.42801058292388916,-0.228544682264328,-0.7487907409667969,8.493147850036621,-0.4391289949417114,5.378320217132568,2.549161672592163,-0.2696889340877533,0.5368486046791077
1785712345728870,396370889,0.45164570212364197,-0.42786937952041626,-0.22876623272895813,-0.7487395405769348,8.530660629272461,-0.34004566073417664,5.356518268585205,2.308056592941284,0.23539991676807404,0.43848299980163574
1785712345757037,396387556,0.4516848623752594,-0.4278460741043091,-0.22875097393989563,-0.7487338185310364,8.5599365234375,-0.28446531295776367,5.402717113494873,0.5056394934654236,0.38770586252212524,0.8628341555595398
1785712345761261,396404223,0.4516560137271881,-0.4279710054397583,-0.22855930030345917,-0.7487384676933289,8.574188232421875,-0.33399656414985657,5.349269390106201,-1.1770315170288086,0.10172723233699799,1.1733624935150146
1785712345812589,396420890,0.45162373781204224,-0.4281071424484253,-0.22837243974208832,-0.748737096786499,8.543021202087402,-0.44125911593437195,5.360640525817871,-1.180374026298523,0.005551552399992943,1.1825063228607178
1785712345817159,396437557,0.4516112506389618,-0.42814332246780396,-0.22831454873085022,-0.7487415671348572,8.492701530456543,-0.47451621294021606,5.339517116546631,-0.1019001230597496,0.16496498882770538,0.7630982995033264
1785712345819319,396454224,0.45164403319358826,-0.42814719676971436,-0.22832821309566498,-0.7487154006958008,8.530051231384277,-0.4531768560409546,5.343735694885254,0.5083160996437073,0.09189195930957794,0.80562824010849
1785712345847093,396470891,0.45168089866638184,-0.4281493127346039,-0.22834014892578125,-0.7486882209777832,8.584456443786621,-0.462287038564682,5.350003242492676,0.5735003352165222,0.10679854452610016,0.8654851913452148
1785712345848785,396487558,0.4517281651496887,-0.42816582322120667,-0.22835826873779297,-0.7486448884010315,8.533251762390137,-0.46283289790153503,5.359126091003418,0.591839075088501,-0.015969518572092056,0.958344042301178
1785712345877149,396504225,0.4518180191516876,-0.4281870722770691,-0.22840616106987,-0.7485637664794922,8.518298149108887,-0.40949177742004395,5.371058940887451,0.8922760486602783,-0.17620256543159485,1.2002558708190918
1785712345879162,396520892,0.45189929008483887,-0.4282466471195221,-0.22839969396591187,-0.7484826445579529,8.545743942260742,-0.36121973395347595,5.355767250061035,0.5345690250396729,-0.2211272269487381,1.4163116216659546
1785712345907158,396537559,0.4518892765045166,-0.4283246695995331,-0.2282554805278778,-0.7484880089759827,8.547785758972168,-0.36124637722969055,5.381490707397461,-0.6881108283996582,0.2258720099925995,1.0817075967788696
1785712345909173,396554226,0.4518166184425354,-0.42843136191368103,-0.22804459929466248,-0.74853515625,8.52978515625,-0.38450032472610474,5.34487771987915,-1.3532086610794067,0.30916452407836914,0.8807759284973145
1785712345943086,396570893,0.45174139738082886,-0.42855340242385864,-0.2278352975845337,-0.748574435710907,8.561369895935059,-0.45835477113723755,5.378299236297607,-1.3901292085647583,0.19837674498558044,0.91019207239151
1785712345967168,396587560,0.45178353786468506,-0.42858564853668213,-0.22778186202049255,-0.7485467195510864,8.52703857421875,-0.4956298768520355,5.341688632965088,0.013901292346417904,0.16954965889453888,1.0444282293319702
1785712345970033,396604227,0.45189738273620605,-0.4285421073436737,-0.2278362512588501,-0.748486340045929,8.518876075744629,-0.45630326867103577,5.423361301422119,1.2042515277862549,0.23358139395713806,1.1620417833328247
1785712345997091,396620894,0.4519721567630768,-0.42858949303627014,-0.22787955403327942,-0.7484009265899658,8.510354042053223,-0.42642155289649963,5.39587926864624,0.742800235748291,-0.3328370153903961,1.1856310367584229
1785712345998839,396637561,0.4519490897655487,-0.428640753030777,-0.22781726717948914,-0.7484044432640076,8.535860061645508,-0.45063072443008423,5.282172679901123,-0.22993800044059753,0.08375992625951767,0.7296609878540039
1785712346027088,396654228,0.45190954208374023,-0.42869067192077637,-0.22765639424324036,-0.7484487891197205,8.587138175964355,-0.44216954708099365,5.307013034820557,-0.8903743624687195,0.4933454096317291,0.7792727947235107
1785712346028943,396670895,0.4519062936306,-0.4287552237510681,-0.22744840383529663,-0.748477041721344,8.599441528320312,-0.47803211212158203,5.288097858428955,-1.0347787141799927,0.5740766525268555,1.1839919090270996
1785712346075797,396687562,0.45192480087280273,-0.42877432703971863,-0.22745664417743683,-0.748452365398407,8.503485679626465,-0.48296216130256653,5.319228649139404,0.432848185300827,0.010097806341946125,0.7923736572265625
1785712346076080,396704229,0.4519788324832916,-0.4287468492984772,-0.22764238715171814,-0.7483789920806885,8.520954132080078,-0.43366673588752747,5.3596062660217285,1.6329247951507568,-0.3870719075202942,0.5061069130897522
1785712346087333,396720896,0.4520382881164551,-0.42872318625450134,-0.22776415944099426,-0.7483196258544922,8.554840087890625,-0.37122100591659546,5.368655681610107,1.3611420392990112,-0.1624869704246521,0.7311593294143677
1785712346117094,396737563,0.45213475823402405,-0.4286959171295166,-0.22779452800750732,-0.748267650604248,8.546363830566406,-0.3930531442165375,5.380533695220947,0.8015046119689941,0.23004688322544098,1.042648196220398
1785712346119027,396754230,0.4522313177585602,-0.4287429749965668,-0.22773660719394684,-0.748199999332428,8.5231351852417,-0.40564173460006714,5.391402721405029,0.2744208574295044,0.06969854980707169,1.5485628843307495
1785712346148147,396770897,0.4523274898529053,-0.4287973642349243,-0.22767670452594757,-0.7481288909912109,8.521851539611816,-0.4411606192588806,5.37566614151001,0.1871199756860733,0.02999887242913246,1.5395729541778564
1785712346149326,396787564,0.4524000883102417,-0.42888572812080383,-0.2275545448064804,-0.748071551322937,8.544755935668945,-0.4512913227081299,5.32562780380249,-0.236341193318367,0.04760760813951492,1.6681746244430542
1785712346206921,396804231,0.45246198773384094,-0.42897653579711914,-0.2273823618888855,-0.7480344176292419,8.552292823791504,-0.4747450649738312,5.349193096160889,-0.5116649270057678,0.2304566651582718,1.7340885400772095
1785712346207841,396820898,0.45257529616355896,-0.42908644676208496,-0.22725501656532288,-0.7479415535926819,8.573034286499023,-0.4442136287689209,5.337462902069092,-0.3308648467063904,-0.07832363992929459,1.9299615621566772
1785712346211233,396837565,0.45268380641937256,-0.4291548728942871,-0.2271648347377777,-0.7478639483451843,8.570566177368164,-0.4601062834262848,5.365634441375732,-0.07313066720962524,0.05812802538275719,1.6692694425582886
1785712346211894,396854232,0.45277833938598633,-0.4292985796928406,-0.2271007001399994,-0.7477437853813171,8.529815673828125,-0.4036855697631836,5.397767066955566,0.012313303537666798,-0.5662198662757874,1.8675049543380737
1785712346237333,396870899,0.4529891312122345,-0.4294813275337219,-0.2269609272480011,-0.7475534677505493,8.58689022064209,-0.40336745977401733,5.4326171875,-0.055912524461746216,-0.5571146607398987,2.961193084716797
1785712346267086,396887566,0.45344388484954834,-0.42982473969459534,-0.2265230119228363,-0.7472131252288818,8.568552017211914,-0.2611778676509857,5.545475006103516,-1.0779746770858765,-0.5192335844039917,5.847156524658203
1785712346268954,396904233,0.45416760444641113,-0.4310108423233032,-0.22508466243743896,-0.7465249300003052,8.61428165435791,0.09377075731754303,5.598002910614014,-7.541051387786865,-2.3370327949523926,12.563308715820312
1785712346297099,396920900,0.45447665452957153,-0.43264538049697876,-0.22214548289775848,-0.7462714910507202,8.61487865447998,-0.250122994184494,5.391236782073975,-18.538814544677734,0.6941631436347961,14.223569869995117
1785712346298833,396937567,0.4538305103778839,-0.4341427981853485,-0.2192799597978592,-0.7466425895690918,8.341270446777344,-0.908603847026825,5.312089920043945,-21.54173469543457,1.5674744844436646,6.9343438148498535
1785712346341988,396954234,0.45317983627319336,-0.43532443046569824,-0.21799463033676147,-0.7467261552810669,8.437671661376953,-1.1008095741271973,5.167178153991699,-12.247036933898926,-2.5895986557006836,2.4811482429504395
1785712346342902,396970901,0.4528887867927551,-0.4358721673488617,-0.2178136259317398,-0.7466359734535217,8.593425750732422,-0.9759162068367004,5.112514019012451,-2.3007636070251465,-2.8341610431671143,1.1931869983673096
1785712346357091,396987568,0.45311328768730164,-0.4359416961669922,-0.21823157370090485,-0.7463369965553284,8.647902488708496,-0.8579378724098206,5.174008846282959,2.831439256668091,-1.9942560195922852,1.202663540840149
1785712346358700,397004235,0.4535323679447174,-0.43573662638664246,-0.21880275011062622,-0.7460349798202515,8.61988353729248,-0.782349705696106,5.318696022033691,5.642638206481934,-0.8260480761528015,1.6889591217041016
1785712346387326,397020902,0.4540911614894867,-0.4353863596916199,-0.21981805562973022,-0.7456008791923523,8.474526405334473,-0.5624270439147949,5.408918857574463,8.813300132751465,-1.637522578239441,1.1615937948226929
1785712346417088,397037569,0.4546808898448944,-0.4350813329219818,-0.2209121137857437,-0.7450961470603943,8.449007987976074,-0.3378017842769623,5.4325408935546875,9.5506010055542,-2.301084041595459,1.5387409925460815
1785712346418904,397054236,0.4552106559276581,-0.43523576855659485,-0.2213631421327591,-0.7445484399795532,8.536702156066895,-0.31446099281311035,5.441979885101318,4.609793186187744,-2.857750177383423,3.930480718612671
1785712346474816,397070903,0.455371618270874,-0.4358653128147125,-0.221134215593338,-0.7441495656967163,8.652894973754883,-0.4623614251613617,5.319092750549316,-1.4553775787353516,-3.295842170715332,4.473507404327393
1785712346475278,397087570,0.4552445709705353,-0.43661168217658997,-0.22050116956233978,-0.7439776659011841,8.617660522460938,-0.5707600116729736,5.33062744140625,-5.387260913848877,-2.363168954849243,3.5046567916870117
1785712346478614,397104237,0.45496511459350586,-0.4376472532749176,-0.21990031003952026,-0.7437178492546082,8.6167573928833,-0.6306683421134949,5.3519463539123535,-6.426419258117676,-4.441409587860107,3.3569867610931396
1785712346479532,397120904,0.4546983540058136,-0.43860575556755066,-0.21956560015678406,-0.743415355682373,8.651042938232422,-0.671081006526947,5.3325090408325195,-4.770813941955566,-4.98415470123291,2.6099917888641357
1785712346507082,397137571,0.4545610547065735,-0.43946951627731323,-0.21970807015895844,-0.7429469227790833,8.538323402404785,-0.7430530190467834,5.375249862670898,-1.4430965185165405,-6.293143272399902,2.180415630340576
1785712346509597,397154238,0.4545600414276123,-0.4404120147228241,-0.22082188725471497,-0.742058515548706,8.514616012573242,-0.8350914716720581,5.324461936950684,4.227065086364746,-10.78564167022705,1.319343090057373
1785712346537407,397170905,0.4546492099761963,-0.44114118814468384,-0.22275546193122864,-0.7409921884536743,8.543359756469727,-0.7680526375770569,5.116677761077881,9.831314086914062,-12.67937183380127,-0.34755179286003113
1785712346567114,397187572,0.4550880193710327,-0.44131577014923096,-0.22543764114379883,-0.7398068904876709,8.862875938415527,-0.5555896759033203,5.026493072509766,16.568218231201172,-12.01485824584961,-1.3442332744598389
1785712346569124,397204239,0.4560423493385315,-0.4414212107658386,-0.22879436612129211,-0.7381238341331482,9.320479393005371,-0.5323962569236755,5.0377326011657715,22.54693603515625,-14.484518051147461,0.6792569756507874
1785712346607679,397220906,0.45733770728111267,-0.4419246315956116,-0.23213686048984528,-0.7359743118286133,9.160224914550781,-0.7140561938285828,5.069085121154785,23.33980369567871,-17.363296508789062,4.737588882446289
1785712346607945,397237573,0.45844748616218567,-0.443285197019577,-0.23450343310832977,-0.7337118983268738,8.540765762329102,-0.6752704977989197,5.165079116821289,15.078609466552734,-19.25282859802246,8.348125457763672
1785712346627089,397254240,0.4584192931652069,-0.4454619586467743,-0.23566940426826477,-0.7320356965065002,8.330283164978027,-0.8173354864120483,5.194019794464111,2.286397695541382,-19.651643753051758,5.871719837188721
1785712346628930,397270907,0.4578452706336975,-0.44717028737068176,-0.23742346465587616,-0.7307857275009155,8.587824821472168,-0.9087777733802795,5.011469841003418,3.8532371520996094,-18.691469192504883,-1.0574215650558472
1785712346657102,397287574,0.457732230424881,-0.4481337070465088,-0.23923614621162415,-0.7296741604804993,9.266473770141602,-0.5301880836486816,4.747350692749023,8.075338363647461,-13.982048988342285,-0.3609088659286499
1785712346658995,397304241,0.4582183063030243,-0.4490559995174408,-0.23952876031398773,-0.7287054061889648,9.680150985717773,-0.07290878891944885,4.694497585296631,2.008888006210327,-7.553828239440918,6.71339225769043
1785712346687323,397320908,0.4584842026233673,-0.4506739675998688,-0.23787277936935425,-0.7280814051628113,9.602434158325195,-0.12875284254550934,4.939200401306152,-11.248430252075195,-4.193417549133301,11.65642261505127
1785712346738590,397337575,0.4582575857639313,-0.4527110159397125,-0.23542378842830658,-0.7277562618255615,9.321925163269043,-0.5249719023704529,5.043907165527344,-18.49563980102539,-3.6752235889434814,11.42405891418457
1785712346739047,397354242,0.4577700197696686,-0.4544186592102051,-0.23299191892147064,-0.7277815937995911,9.111381530761719,-0.7474321126937866,4.9660539627075195,-18.62181854248047,-1.4233638048171997,8.496264457702637
1785712346747102,397370909,0.4573940932750702,-0.45563653111457825,-0.23063424229621887,-0.728007435798645,9.162357330322266,-0.7540437579154968,4.973626136779785,-16.732975006103516,1.6035168170928955,7.380428314208984
1785712346749234,397387576,0.45763441920280457,-0.4561000466346741,-0.22778935730457306,-0.7284616827964783,9.185319900512695,-0.9795548319816589,4.940549850463867,-15.681628227233887,8.645648002624512,9.837268829345703
1785712346778279,397404243,0.4584224820137024,-0.45572200417518616,-0.2253086268901825,-0.7289740443229675,8.923099517822266,-1.5126579999923706,5.057946681976318,-9.081686973571777,12.707328796386719,10.20459270477295
1785712346779380,397420910,0.4597680866718292,-0.45461899042129517,-0.22405587136745453,-0.7292014956474304,8.937535285949707,-1.4863849878311157,5.119158744812012,1.403801441192627,12.455639839172363,8.848408699035645
1785712346807088,397437577,0.4612509310245514,-0.45346787571907043,-0.2228090614080429,-0.7293639183044434,9.468050003051758,-1.1320390701293945,5.362082481384277,2.1265218257904053,12.684572219848633,9.655445098876953
1785712346808747,397454244,0.46316882967948914,-0.45306557416915894,-0.22047822177410126,-0.729106605052948,9.954644203186035,-1.4054622650146484,5.226146697998047,-3.677016258239746,11.725037574768066,17.69882583618164
1785712346837330,397470911,0.4662458002567291,-0.4505215883255005,-0.21671079099178314,-0.7298510074615479,8.865041732788086,-1.4280905723571777,5.298496723175049,-2.0572996139526367,31.923843383789062,21.495960235595703
1785712346871795,397487578,0.47017210721969604,-0.4484435021877289,-0.2120949774980545,-0.7299680113792419,8.379728317260742,-1.4281202554702759,5.590360641479492,-4.191905975341797,31.62158966064453,31.118682861328125
1785712346872325,397504245,0.47395527362823486,-0.44650760293006897,-0.20766547322273254,-0.729981541633606,8.609801292419434,-1.9725598096847534,5.556867599487305,-3.9950172901153564,29.77678680419922,30.37327766418457
1785712346897119,397520912,0.47756049036979675,-0.44384899735450745,-0.20405226945877075,-0.7302722930908203,8.835710525512695,-1.9656622409820557,5.5308027267456055,1.5098832845687866,31.341854095458984,25.034025192260742
1785712346898676,397537579,0.4818446636199951,-0.4403359293937683,-0.20071357488632202,-0.7305101156234741,8.710394859313965,-1.5419074296951294,5.552554130554199,7.871562480926514,35.51700973510742,26.5986385345459
1785712346927101,397554246,0.4869508445262909,-0.4366762936115265,-0.19682131707668304,-0.7303799390792847,8.523127555847168,-1.3772022724151611,5.7314252853393555,8.584463119506836,38.10566329956055,33.42597198486328
1785712346928961,397570913,0.49198898673057556,-0.4334828555583954,-0.19237864017486572,-0.7300896048545837,8.534677505493164,-1.3658591508865356,5.682425022125244,4.258958339691162,37.03654479980469,35.896240234375
1785712346957099,397587580,0.4968651533126831,-0.42985063791275024,-0.18724042177200317,-0.7302706837654114,8.503067016601562,-1.3444738388061523,5.672016143798828,1.1445285081863403,42.78365707397461,34.98014831542969
1785712346958898,397604247,0.501836895942688,-0.42612987756729126,-0.1810866892337799,-0.7306035161018372,8.21202278137207,-1.2818375825881958,5.866471290588379,-3.564847469329834,47.2689094543457,37.828636169433594
1785712347003250,397620914,0.5065169930458069,-0.4230298399925232,-0.17410001158714294,-0.7308738827705383,7.980095386505127,-1.5361422300338745,5.870316982269287,-10.667411804199219,46.47862243652344,39.792999267578125
1785712347017107,397637581,0.5109049081802368,-0.41988813877105713,-0.16684125363826752,-0.731324315071106,7.88020133972168,-1.9176474809646606,5.829598426818848,-12.956233978271484,47.80984115600586,38.4380989074707
1785712347018711,397654248,0.515995442867279,-0.41649121046066284,-0.1591740846633911,-0.7314016222953796,7.7910542488098145,-1.7129297256469727,6.048599720001221,-11.65655517578125,50.25722122192383,44.167510986328125
1785712347047123,397670915,0.5212072134017944,-0.41389867663383484,-0.15068058669567108,-0.7309768795967102,7.386220455169678,-2.1383168697357178,6.457484245300293,-17.769359588623047,47.83865737915039,49.80501937866211
1785712347049006,397687582,0.5257298350334167,-0.41159123182296753,-0.14343701303005219,-0.730498194694519,7.2252726554870605,-3.1236772537231445,6.331721782684326,-14.414965629577637,41.05940628051758,43.272003173828125
1785712347077935,397704249,0.5308812856674194,-0.4081666171550751,-0.1376812905073166,-0.7298011183738708,7.507455825805664,-3.3620352745056152,6.2585768699646,-0.9085704684257507,41.293399810791016,41.90602111816406
1785712347078919,397720916,0.5371545553207397,-0.4034263491630554,-0.13302676379680634,-0.7287091612815857,7.50137996673584,-3.055940866470337,6.379181385040283,12.942136764526367,43.83034896850586,44.64008331298828
1785712347107397,397737583,0.5442894101142883,-0.39834240078926086,-0.12928469479084015,-0.7268828749656677,7.385354518890381,-2.833073139190674,6.6170735359191895,21.846261978149414,40.93312454223633,48.823638916015625
1785712347157730,397754250,0.5516299605369568,-0.3931443691253662,-0.12573952972888947,-0.7247982025146484,7.179311752319336,-2.8037309646606445,6.72831392288208,24.048871994018555,40.242706298828125,50.17575454711914
1785712347158210,397770917,0.558972954750061,-0.38815656304359436,-0.12175633013248444,-0.7225372791290283,7.01387357711792,-2.785013437271118,6.905804634094238,21.229040145874023,40.38170623779297,52.22328186035156
1785712347167063,397787584,0.5663941502571106,-0.38324031233787537,-0.11747250705957413,-0.7200871706008911,6.951652526855469,-3.0047364234924316,6.9113006591796875,19.827543258666992,40.742340087890625,54.200260162353516
1785712347168612,397804251,0.57412189245224,-0.3779621124267578,-0.11320960521697998,-0.7174351215362549,6.911486625671387,-3.3597781658172607,6.926662445068359,22.312259674072266,42.16905212402344,56.156551361083984
1785712347197116,397820918,0.5824564695358276,-0.37175318598747253,-0.11005419492721558,-0.714445948600769,6.8887553215026855,-3.593588352203369,6.934474945068359,33.289371490478516,41.98518753051758,56.876895904541016
1785712347198772,397837585,0.5913934707641602,-0.36479490995407104,-0.1078672856092453,-0.7110162973403931,6.782400608062744,-3.339829206466675,7.0063371658325195,42.92163848876953,41.117706298828125,58.55802536010742
1785712347227120,397854252,0.6005366444587708,-0.35764792561531067,-0.10583380609750748,-0.7072792649269104,6.73138952255249,-2.9398105144500732,7.157287120819092,45.184932708740234,40.799095153808594,60.29092025756836
1785712347228707,397870919,0.6096483469009399,-0.35060790181159973,-0.1035718098282814,-0.703332781791687,6.504117012023926,-3.007155656814575,7.3133039474487305,43.70674133300781,40.685237884521484,61.64146041870117
1785712347257105,397887586,0.618686854839325,-0.343322217464447,-0.10180949419736862,-0.6992796659469604,6.344437599182129,-3.209226131439209,7.283951759338379,47.051578521728516,39.47061538696289,60.354312896728516
1785712347258721,397904253,0.628117024898529,-0.33523643016815186,-0.1003713458776474,-0.6949905753135681,6.236636638641357,-3.036642551422119,7.283240795135498,53.10527038574219,41.656517028808594,61.916404724121094
1785712347314544,397920920,0.6377547383308411,-0.3270017206668854,-0.09898887574672699,-0.690319299697876,5.955965518951416,-2.6822023391723633,7.607082366943359,54.75635528564453,41.39080810546875,64.32664489746094
1785712347317173,397937587,0.6471779942512512,-0.3192046880722046,-0.09701243788003922,-0.6854622960090637,5.755172252655029,-2.6449477672576904,7.8656535148620605,49.66289520263672,41.354820251464844,65.75636291503906
1785712347319534,397954254,0.6561437249183655,-0.3118692934513092,-0.09465403109788895,-0.6806280016899109,5.371622085571289,-3.1093342304229736,7.844611167907715,44.787933349609375,40.623863220214844,64.64496612548828
1785712347347108,397970921,0.6650874018669128,-0.303906112909317,-0.09360390901565552,-0.6756768822669983,5.527132987976074,-3.6390483379364014,7.702588081359863,53.77216339111328,37.394718170166016,61.85495376586914
1785712347348987,397987588,0.6746644377708435,-0.2942294776439667,-0.09389206022024155,-0.6704045534133911,5.536034107208252,-3.656367301940918,7.781991481781006,69.3566665649414,38.97227096557617,62.366607666015625
1785712347377104,398004255,0.6845072507858276,-0.2837512493133545,-0.09531258791685104,-0.6647192239761353,5.486476421356201,-2.821042537689209,8.085598945617676,79.10038757324219,36.751564025878906,62.69949722290039
1785712347379470,398020922,0.6938300728797913,-0.2732815742492676,-0.09667158126831055,-0.6592212319374084,5.290083408355713,-2.0885162353515625,8.336845397949219,77.64241790771484,37.027217864990234,59.56657409667969
1785712347407104,398037589,0.7028008699417114,-0.26341331005096436,-0.09736178815364838,-0.6536099910736084,5.3418073654174805,-1.7023420333862305,8.572781562805176,71.15421295166016,37.04586410522461,60.16585922241211
1785712347408693,398054256,0.7110056281089783,-0.25443974137306213,-0.09671656787395477,-0.6483657956123352,5.0480732917785645,-1.7241555452346802,8.554563522338867,59.19540023803711,39.63055419921875,57.9676513671875
1785712347437345,398070923,0.7186695337295532,-0.24607370793819427,-0.0954747274518013,-0.6433095335960388,4.721296310424805,-1.855739951133728,8.442282676696777,52.49418258666992,39.80860900878906,56.0863151550293
1785712347473066,398087590,0.7260425090789795,-0.23823055624961853,-0.0942762941122055,-0.638139009475708,4.5558762550354,-1.8808053731918335,8.384493827819824,49.68407440185547,36.89737319946289,55.63320541381836
1785712347473549,398104257,0.7331404685974121,-0.23082029819488525,-0.09354754537343979,-0.6328324675559998,4.445074558258057,-1.8872559070587158,8.370465278625488,49.22186279296875,32.252593994140625,54.61734390258789
1785712347497109,398120924,0.7397419214248657,-0.22362487018108368,-0.0936448872089386,-0.6276986598968506,4.1931328773498535,-1.8959335088729858,8.502662658691406,50.83367156982422,27.109460830688477,50.41204833984375
1785712347498722,398137591,0.7458716630935669,-0.21608546376228333,-0.09464365243911743,-0.6229172945022583,3.9504523277282715,-1.804897665977478,8.607573509216309,55.52180480957031,24.247943878173828,44.97575378417969
1785712347527427,398154258,0.7516149282455444,-0.208110049366951,-0.09624386578798294,-0.6184685826301575,3.722552537918091,-1.5356106758117676,8.75522518157959,59.54221725463867,23.27389144897461,40.436763763427734
1785712347528716,398170925,0.7569189667701721,-0.20064762234687805,-0.09788016229867935,-0.6141942739486694,3.6065244674682617,-1.0921611785888672,8.766471862792969,56.30012130737305,20.864646911621094,37.95561599731445
1785712347557542,398187592,0.7618172764778137,-0.19445912539958954,-0.09880972653627396,-0.6099653840065002,3.4575467109680176,-0.6842918992042542,8.816391944885254,46.09446334838867,18.952783584594727,37.83694076538086
1785712347558789,398204259,0.7662819027900696,-0.19040469825267792,-0.0988026037812233,-0.6056375503540039,3.369062662124634,-0.620572030544281,8.885501861572266,30.474754333496094,14.48188304901123,39.24034881591797
1785712347587751,398220926,0.7700621485710144,-0.18849049508571625,-0.0981815755367279,-0.6015287637710571,3.309089183807373,-0.9665470719337463,8.802492141723633,15.596814155578613,8.626057624816895,37.49312973022461
1785712347627247,398237593,0.7733131647109985,-0.18724225461483002,-0.09782728552818298,-0.5977941751480103,3.341764450073242,-1.5503078699111938,8.785839080810547,12.23428726196289,4.587005138397217,33.42625427246094
1785712347627514,398254260,0.7762097716331482,-0.1857394278049469,-0.09856925159692764,-0.5943774580955505,3.4179306030273438,-1.8703162670135498,8.758620262145996,17.42362403869629,-0.024140063673257828,28.69658660888672
1785712347647921,398270927,0.7791867256164551,-0.1831849068403244,-0.10048277676105499,-0.5909443497657776,3.482224702835083,-1.7218050956726074,8.953864097595215,27.93801498413086,-1.9453717470169067,26.903894424438477
1785712347649166,398287594,0.7821871042251587,-0.17997433245182037,-0.10282057523727417,-0.587555468082428,3.505147933959961,-1.5233346223831177,9.065518379211426,33.176151275634766,-1.4810250997543335,25.774700164794922
1785712347677540,398304261,0.785149335861206,-0.17678101360797882,-0.10492798686027527,-0.5841917991638184,3.608170986175537,-1.2674801349639893,9.154574394226074,32.08745574951172,-0.30772557854652405,25.78264617919922
1785712347678785,398320928,0.7878620624542236,-0.1740560531616211,-0.10629164427518845,-0.5811031460762024,3.6328930854797363,-1.1888840198516846,9.085139274597168,26.069955825805664,1.980568528175354,24.537824630737305
1785712347707128,398337595,0.7902296781539917,-0.17207203805446625,-0.10730630904436111,-0.578285813331604,3.6829631328582764,-1.17916738986969,9.02807331085205,20.050426483154297,0.9829416275024414,22.648279190063477
1785712347709033,398354262,0.7923465967178345,-0.1703057438135147,-0.10833127051591873,-0.575715184211731,3.7253992557525635,-1.1291882991790771,9.13359546661377,18.429492950439453,0.1688329577445984,20.459714889526367
1785712347737354,398370929,0.7941627502441406,-0.1687166541814804,-0.10931986570358276,-0.5734896063804626,3.5695064067840576,-1.1688998937606812,9.433083534240723,16.710905075073242,-0.1544705033302307,17.564592361450195
1785712347787448,398387596,0.7958035469055176,-0.16675721108913422,-0.11025410890579224,-0.5716063380241394,3.670541524887085,-1.315896987915039,9.584819793701172,18.057361602783203,1.8678669929504395,14.787972450256348
1785712347787716,398404263,0.7974122166633606,-0.16407284140586853,-0.11102040857076645,-0.5699905157089233,3.8825843334198,-1.3786967992782593,9.502525329589844,21.124282836914062,5.918128490447998,12.840885162353516
1785712347797140,398420930,0.7988709211349487,-0.1613294631242752,-0.1115337610244751,-0.568629264831543,3.951169967651367,-1.2096320390701294,9.343338966369629,20.092172622680664,7.709022045135498,11.096526145935059
1785712347827147,398437597,0.7999297380447388,-0.15896178781986237,-0.11173629760742188,-0.5677671432495117,3.8538947105407715,-0.8872405886650085,9.237628936767578,15.988086700439453,8.194619178771973,7.426545143127441
1785712347829450,398454264,0.8003607988357544,-0.1576583981513977,-0.11166710406541824,-0.5675365328788757,3.629603862762451,-0.7069607377052307,9.228227615356445,7.90219259262085,5.7429518699646,2.616971969604492
1785712347857145,398470931,0.800317108631134,-0.157318577170372,-0.11119681596755981,-0.5677847266197205,3.550814151763916,-0.856391966342926,9.114599227905273,0.15180009603500366,4.344650745391846,-0.6966526508331299
1785712347860683,398487598,0.7999828457832336,-0.15715040266513824,-0.11052911728620529,-0.5684323906898499,3.3570635318756104,-1.218384027481079,9.205175399780273,-2.1832268238067627,4.9708428382873535,-3.6820695400238037
1785712347887134,398504265,0.79950350522995,-0.15624819695949554,-0.1104361042380333,-0.5693727731704712,3.3749425411224365,-1.4584938287734985,9.104532241821289,3.7209372520446777,4.884176254272461,-7.0381669998168945
1785712347888982,398520932,0.7988753914833069,-0.15435969829559326,-0.11126852035522461,-0.5706061720848083,3.465421199798584,-1.4864784479141235,9.006447792053223,12.382938385009766,3.8598697185516357,-10.97519302368164
1785712347945600,398537599,0.7980850338935852,-0.1521369218826294,-0.11297177523374557,-0.5719727873802185,3.5719001293182373,-1.4029028415679932,8.990739822387695,17.361923217773438,0.4053536057472229,-13.522477149963379
1785712347946076,398554266,0.7971597909927368,-0.1496405303478241,-0.11559519916772842,-0.5733957886695862,3.6305320262908936,-1.4054926633834839,8.994612693786621,22.29702377319336,-3.613577365875244,-15.537715911865234
1785712347949597,398570933,0.7960159182548523,-0.1466255933046341,-0.11904070526361465,-0.5750564336776733,3.6443278789520264,-1.188185691833496,9.144302368164062,27.96659278869629,-6.004077434539795,-18.961278915405273
1785712347950375,398587600,0.7944104075431824,-0.1437428742647171,-0.12268253415822983,-0.5772348046302795,3.5376434326171875,-0.864937424659729,9.07509994506836,27.130146026611328,-7.45713472366333,-23.70952033996582
1785712347977684,398604267,0.7923873066902161,-0.14154593646526337,-0.12650412321090698,-0.5797280073165894,3.5001277923583984,-0.579403281211853,9.086118698120117,23.419795989990234,-11.202025413513184,-26.68487548828125
1785712347979245,398620934,0.7901621460914612,-0.14006491005420685,-0.1304037719964981,-0.5822553634643555,3.6190524101257324,-0.5301800966262817,9.119302749633789,19.604389190673828,-14.623612403869629,-27.129545211791992
1785712348007138,398637601,0.787765383720398,-0.13925950229167938,-0.13400280475616455,-0.5848732590675354,3.77923321723938,-0.7145805954933167,9.248106002807617,14.48375415802002,-15.761802673339844,-27.41295051574707
1785712348008774,398654268,0.7853882312774658,-0.13840997219085693,-0.13746973872184753,-0.5874615907669067,4.0401201248168945,-0.7198003530502319,9.214052200317383,14.236898422241211,-14.879569053649902,-27.089130401611328
1785712348037414,398670935,0.7828501462936401,-0.13777077198028564,-0.14075462520122528,-0.5902150869369507,4.1136603355407715,-0.6109570860862732,9.234272003173828,12.057490348815918,-14.74056625366211,-28.258275985717773
1785712348102943,398687602,0.7799721360206604,-0.13738839328289032,-0.14444571733474731,-0.5932151675224304,4.0695929527282715,-0.615208625793457,8.979543685913086,11.763068199157715,-18.064647674560547,-31.10162925720215
1785712348103396,398704269,0.7768630385398865,-0.13722524046897888,-0.14867201447486877,-0.5962805151939392,4.16951847076416,-0.5924376845359802,9.15781021118164,12.486847877502441,-21.996585845947266,-32.68057632446289
1785712348104677,398720936,0.773669958114624,-0.13707727193832397,-0.15294362604618073,-0.5993778109550476,4.265834331512451,-0.6151040196418762,9.252564430236816,12.480216979980469,-22.35641098022461,-33.22397232055664
1785712348104920,398737603,0.7704519033432007,-0.13683576881885529,-0.15725913643836975,-0.6024534702301025,4.1996965408325195,-0.6847082376480103,9.008100509643555,13.157781600952148,-22.25104331970215,-33.35178756713867
1785712348127098,398754270,0.7671430706977844,-0.13595478236675262,-0.16198109090328217,-0.6056159734725952,4.361417770385742,-0.6376038193702698,8.860578536987305,18.05032730102539,-21.771717071533203,-35.26139450073242
1785712348128966,398770937,0.76347416639328,-0.134396031498909,-0.16748929023742676,-0.6090919971466064,4.398772239685059,-0.42134183645248413,8.885326385498047,24.213537216186523,-23.20448112487793,-39.9052734375
1785712348157145,398787604,0.7592966556549072,-0.1327938437461853,-0.17430979013442993,-0.612740695476532,4.3812994956970215,-0.08583040535449982,8.84499740600586,29.268508911132812,-30.337156295776367,-44.20351791381836
1785712348158805,398804271,0.7547203898429871,-0.13163383305072784,-0.1816747635602951,-0.6164939403533936,4.475372791290283,-0.012100428342819214,8.835556983947754,28.765287399291992,-35.42513656616211,-46.395572662353516
1785712348187415,398820938,0.750228762626648,-0.1304948329925537,-0.18908165395259857,-0.6199814081192017,4.56212043762207,-0.021550145000219345,8.866975784301758,29.24269676208496,-35.86640930175781,-44.66992950439453
1785712348217139,398837605,0.7456346750259399,-0.12883876264095306,-0.19719628989696503,-0.6233329772949219,4.721401214599609,0.05344384163618088,8.924285888671875,35.01158905029297,-37.56846618652344,-45.713260650634766
1785712348220092,398854272,0.7407103776931763,-0.12657509744167328,-0.2058657854795456,-0.6268548369407654,5.039720058441162,0.26117441058158875,8.803874015808105,39.98126983642578,-38.10597229003906,-49.31766128540039
1785712348265743,398870939,0.7354190945625305,-0.12415541708469391,-0.21512587368488312,-0.6304489970207214,5.236911773681641,0.4367985725402832,8.742132186889648,42.89988327026367,-40.89767837524414,-52.002315521240234
1785712348266016,398887606,0.7297980189323425,-0.12209261208772659,-0.22467151284217834,-0.6340439915657043,5.447835922241211,0.5934548377990723,8.953692436218262,42.051002502441406,-44.37517166137695,-53.1514892578125
1785712348277116,398904273,0.7242682576179504,-0.12011557817459106,-0.23437130451202393,-0.6372430324554443,5.52773380279541,0.8647236824035645,8.950987815856934,42.98141860961914,-45.71350860595703,-50.76310348510742
1785712348279230,398920940,0.7190095782279968,-0.1181698814034462,-0.24384665489196777,-0.640000581741333,5.663870811462402,1.3094682693481445,8.864567756652832,42.77753829956055,-44.66084671020508,-47.14142608642578
1785712348307108,398937607,0.7137428522109985,-0.11699799448251724,-0.25236976146698,-0.6428008675575256,5.797114849090576,1.7338520288467407,8.985441207885742,34.683685302734375,-43.33673095703125,-45.31747055053711
1785712348308974,398954274,0.7085494995117188,-0.11726866662502289,-0.25911733508110046,-0.6458054780960083,6.003387451171875,2.222820281982422,9.00300407409668,19.46160316467285,-40.70695877075195,-42.06360626220703
1785712348337408,398970941,0.7033029794692993,-0.11985316872596741,-0.26339367032051086,-0.6493263840675354,5.803887367248535,1.9227209091186523,9.069358825683594,-3.7467806339263916,-38.62012481689453,-38.700164794921875
1785712348367135,398987608,0.6980115175247192,-0.12305326014757156,-0.2661658525466919,-0.6532949805259705,5.807962417602539,1.2568185329437256,8.723480224609375,-14.286563873291016,-33.807430267333984,-38.71096420288086
1785712348369334,399004275,0.6928907036781311,-0.12556031346321106,-0.26915666460990906,-0.6570331454277039,5.920952320098877,1.094518780708313,8.56130313873291,-9.411842346191406,-31.626447677612305,-38.29258346557617
1785712348429297,399020942,0.6880965828895569,-0.12718795239925385,-0.2727384865283966,-0.6602734923362732,6.1685333251953125,1.3208268880844116,8.566048622131348,-1.3480838537216187,-30.294261932373047,-36.58088684082031
1785712348430749,399037609,0.6836191415786743,-0.12857577204704285,-0.27617183327674866,-0.6632217764854431,6.173499584197998,1.4842711687088013,8.532466888427734,-0.06254664063453674,-28.164085388183594,-34.0822868347168
1785712348433489,399054276,0.6795623302459717,-0.13040219247341156,-0.2791701555252075,-0.6657741665840149,6.0726752281188965,1.4934495687484741,8.776147842407227,-2.9838449954986572,-27.670413970947266,-29.08780288696289
1785712348433888,399070943,0.6759525537490845,-0.13198387622833252,-0.28176310658454895,-0.6680411100387573,6.089094638824463,1.2959150075912476,8.814361572265625,-2.7458338737487793,-24.0539608001709,-25.81271743774414
1785712348457129,399087610,0.672623872756958,-0.13306084275245667,-0.28407979011535645,-0.6702025532722473,6.2024006843566895,1.1848149299621582,8.651597023010254,-1.2093335390090942,-20.00325584411621,-24.759323120117188
1785712348459125,399104277,0.6694492697715759,-0.13353851437568665,-0.28666141629219055,-0.6721839904785156,6.3531389236450195,1.2144919633865356,8.478281021118164,3.2770209312438965,-18.330093383789062,-24.62957000732422
1785712348487626,399120944,0.6667057275772095,-0.13367535173892975,-0.289461612701416,-0.6736817359924316,6.513010025024414,1.4754443168640137,8.540950775146484,7.205967426300049,-17.35539436340332,-21.284343719482422
1785712348517149,399137611,0.6645640730857849,-0.13393309712409973,-0.29181256890296936,-0.6747316718101501,6.588573455810547,1.7143807411193848,8.773298263549805,6.016632080078125,-15.06937313079834,-15.790962219238281
1785712348519014,399154278,0.6631258726119995,-0.1344185471534729,-0.2930593490600586,-0.6755093336105347,6.585482120513916,1.997228980064392,8.990458488464355,1.048802375793457,-9.919549942016602,-9.80960750579834
1785712348547176,399170945,0.6620400547981262,-0.13535693287849426,-0.29274895787239075,-0.6765208840370178,6.543306827545166,1.9649755954742432,8.980827331542969,-8.393402099609375,-3.997722625732422,-6.8884501457214355
1785712348549424,399187612,0.6611495614051819,-0.1365429013967514,-0.2908593714237213,-0.6779668927192688,6.496617794036865,1.7440212965011597,8.847952842712402,-17.558147430419922,2.8366098403930664,-5.988902568817139
1785712348587093,399204279,0.6605560183525085,-0.13767145574092865,-0.28787919878959656,-0.6795871257781982,6.493363380432129,1.4891507625579834,8.67971134185791,-22.44943618774414,8.818989753723145,-4.488763332366943
1785712348587354,399220946,0.6602157354354858,-0.13870112597942352,-0.2845848500728607,-0.6810941696166992,6.542443752288818,1.2629281282424927,8.569001197814941,-23.00371742248535,11.102727890014648,-2.690248966217041
1785712348637126,399237613,0.6601923108100891,-0.1394692063331604,-0.28143998980522156,-0.682266116142273,6.53792667388916,1.0997713804244995,8.40850830078125,-20.156503677368164,11.950031280517578,-0.3390487730503082
1785712348638846,399254280,0.6604477167129517,-0.13981199264526367,-0.27874383330345154,-0.6830551028251648,6.234811305999756,1.017360806465149,8.229949951171875,-15.111743927001953,12.08130168914795,1.452978253364563
1785712348667307,399270947,0.6608895063400269,-0.13980866968631744,-0.2768319547176361,-0.6834058165550232,5.955044746398926,0.8554718494415283,8.158366203308105,-8.836566925048828,10.082413673400879,2.8997883796691895
1785712348669524,399287614,0.6614994406700134,-0.13890942931175232,-0.2759820818901062,-0.6833428740501404,5.999455451965332,0.9111334681510925,8.224010467529297,1.1747844219207764,9.388882637023926,2.842747926712036
1785712348697145,399304281,0.662289023399353,-0.1372639685869217,-0.2760523855686188,-0.6828820705413818,6.119387626647949,1.299625277519226,8.402034759521484,9.819742202758789,8.670858383178711,3.2008533477783203
1785712348698793,399320948,0.6631726026535034,-0.1354658156633377,-0.27619656920433044,-0.6823249459266663,6.1158318519592285,1.4966320991516113,8.49595832824707,11.135225296020508,9.139841079711914,3.722635507583618
1785712348745442,399337615,0.6640710830688477,-0.1337655633687973,-0.27618077397346497,-0.6817927956581116,5.933320045471191,1.4235116243362427,8.436456680297852,9.904685974121094,9.461958885192871,4.012827396392822
1785712348746307,399354282,0.6650583744049072,-0.13201949000358582,-0.2762106955051422,-0.6811583638191223,5.866941928863525,1.3074532747268677,8.353635787963867,10.605669975280762,9.542562484741211,4.766456604003906
1785712348757116,399370949,0.6661440134048462,-0.1301155835390091,-0.27637314796447754,-0.6803976893424988,5.980488300323486,1.3853305578231812,8.393632888793945,12.27745246887207,9.747798919677734,5.382737636566162
1785712348759491,399387616,0.6674340963363647,-0.12825651466846466,-0.27656951546669006,-0.6794057488441467,6.031105041503906,1.6089709997177124,8.483182907104492,12.8541259765625,9.564465522766113,7.453080177307129
1785712348787116,399404283,0.6690334677696228,-0.12650811672210693,-0.2762601375579834,-0.6782854795455933,6.000847816467285,1.8171888589859009,8.51424789428711,10.501585006713867,11.844331741333008,10.143095970153809
1785712348789424,399420950,0.6705842614173889,-0.1250370591878891,-0.2751207649707794,-0.6774895191192627,5.919417858123779,1.8465352058410645,8.52939224243164,4.697086334228516,14.558564186096191,9.672359466552734
1785712348847141,399437617,0.6719872355461121,-0.12395651638507843,-0.27339857816696167,-0.676994800567627,5.798122882843018,1.673006534576416,8.453004837036133,-0.5138296484947205,15.406764030456543,8.835704803466797
1785712348848833,399454284,0.6731694936752319,-0.12284518033266068,-0.2717827260494232,-0.676673412322998,5.786044120788574,1.4813593626022339,8.321133613586426,-0.39024826884269714,14.791404724121094,6.857914924621582
1785712348897957,399470951,0.6743575930595398,-0.12136056274175644,-0.27070358395576477,-0.6761907339096069,5.842194080352783,1.4313515424728394,8.479504585266113,4.142928123474121,13.91998291015625,6.484007358551025
1785712348898417,399487618,0.6757509708404541,-0.11919844895601273,-0.27027833461761475,-0.6753538250923157,5.733053684234619,1.3544862270355225,8.577143669128418,11.154428482055664,14.124009132385254,7.2696685791015625
1785712348907122,399504285,0.6772927045822144,-0.11640836298465729,-0.2702229619026184,-0.6743175387382507,5.655058860778809,1.3142708539962769,8.54178524017334,16.282556533813477,15.434033393859863,7.415435791015625
1785712348908982,399520952,0.6788821816444397,-0.11299742758274078,-0.2704432010650635,-0.6732102036476135,5.626805782318115,1.462491512298584,8.551141738891602,20.62308692932129,17.061309814453125,6.593744277954102
1785712348937126,399537619,0.6804824471473694,-0.10959748923778534,-0.27070167660713196,-0.6720519065856934,5.581025123596191,1.6983909606933594,8.58754825592041,20.852689743041992,16.81245231628418,6.870869159698486
1785712348939369,399554286,0.6822400689125061,-0.1066555306315422,-0.27052009105682373,-0.6708152890205383,5.622234344482422,1.8562840223312378,8.637322425842285,16.94222640991211,16.98933982849121,9.14932632446289
1785712348967120,399570953,0.6841921210289001,-0.10408271849155426,-0.26964515447616577,-0.6695823073387146,5.631494998931885,1.8417311906814575,8.675739288330078,12.148442268371582,18.903461456298828,11.221991539001465
1785712348968726,399587620,0.6862460374832153,-0.10120546817779541,-0.26856034994125366,-0.6683564186096191,5.578938961029053,1.7474431991577148,8.587800979614258,12.675674438476562,21.486543655395508,11.244368553161621
1785712348997123,399604287,0.6882578134536743,-0.09830109030008316,-0.26749804615974426,-0.6671460866928101,5.539112567901611,1.8269888162612915,8.639500617980957,12.849621772766113,21.438453674316406,10.91091537475586
1785712349034477,399620954,0.6904348731040955,-0.09578217566013336,-0.2659517526626587,-0.6658800840377808,5.46697473526001,1.80315363407135,8.629886627197266,9.020635604858398,22.22696304321289,12.968510627746582
1785712349035964,399637621,0.6928307414054871,-0.09354127198457718,-0.2640513479709625,-0.6644647717475891,5.267183303833008,1.7482696771621704,8.630038261413574,6.49721097946167,22.937410354614258,15.420074462890625
1785712349036205,399654288,0.6954179406166077,-0.09137734770774841,-0.26210716366767883,-0.66283118724823,5.199132919311523,1.6256279945373535,8.633166313171387,6.45037841796875,23.001623153686523,17.501588821411133
1785712349057107,399670955,0.6981533765792847,-0.0887795016169548,-0.26046279072761536,-0.6609538793563843,5.219574928283691,1.6050926446914673,8.592880249023438,10.425451278686523,23.659887313842773,18.371755599975586
1785712349059140,399687622,0.7009817361831665,-0.08610343188047409,-0.25901296734809875,-0.6588808298110962,5.196694850921631,1.7361069917678833,8.610552787780762,12.09286880493164,23.12884521484375,19.474899291992188
1785712349087136,399704289,0.7038125395774841,-0.08349013328552246,-0.25756245851516724,-0.6567645072937012,5.034497261047363,1.6450434923171997,8.510262489318848,11.866554260253906,22.82711410522461,19.806249618530273
1785712349088880,399720956,0.7068092823028564,-0.0807780995965004,-0.2563597559928894,-0.6543517112731934,4.799970626831055,1.485064148902893,8.479588508605957,14.08464241027832,22.197330474853516,21.67308807373047
1785712349147136,399737623,0.7101206183433533,-0.0780748650431633,-0.2556213438510895,-0.6513767242431641,4.764429092407227,1.5287950038909912,8.508316993713379,17.297670364379883,20.143712997436523,25.577396392822266
1785712349148995,399754290,0.7137205004692078,-0.0755186453461647,-0.2551158368587494,-0.6479326486587524,4.877202033996582,1.7723342180252075,8.568541526794434,18.603368759155273,18.60362434387207,29.29359245300293
1785712349193080,399770957,0.7175222635269165,-0.07353406399488449,-0.25415512919425964,-0.6443296074867249,4.865270137786865,2.0346131324768066,8.554908752441406,14.15530776977539,18.56201171875,32.2120246887207
1785712349193905,399787624,0.7213934063911438,-0.07243137806653976,-0.2525198757648468,-0.6407650709152222,4.729468822479248,2.0177760124206543,8.558774948120117,6.784911155700684,18.12386703491211,34.21102523803711
1785712349207125,399804291,0.7252992391586304,-0.07188237458467484,-0.25050848722457886,-0.6371971368789673,4.485564231872559,1.597181797027588,8.59640884399414,2.4045655727386475,17.608552932739258,35.52802658081055
1785712349208799,399820958,0.7293389439582825,-0.07092247158288956,-0.24905157089233398,-0.6332525610923767,4.48951530456543,1.2594788074493408,8.50110912322998,7.599565029144287,16.687759399414062,37.011802673339844
1785712349237129,399837625,0.7337090969085693,-0.06956443935632706,-0.2481154501438141,-0.6287062168121338,4.660781383514404,1.5659736394882202,8.372208595275879,13.055809020996094,16.081985473632812,40.53168487548828
1785712349238846,399854292,0.7382369041442871,-0.06862584501504898,-0.24750109016895294,-0.6237314343452454,4.662468433380127,1.8866337537765503,8.438450813293457,13.13809585571289,12.709630012512207,43.93701171875
1785712349267197,399870959,0.7426201701164246,-0.06875843554735184,-0.24705947935581207,-0.6186678409576416,4.506864547729492,1.9112051725387573,8.653985977172852,8.525431632995605,6.951378345489502,45.508872985839844
1785712349269119,399887626,0.7468382120132446,-0.06922296434640884,-0.24674898386001587,-0.6136422157287598,4.367448806762695,1.4805290699005127,8.703922271728516,7.245984077453613,4.607176780700684,45.113853454589844
1785712349297181,399904293,0.7510266900062561,-0.06900002807378769,-0.24681010842323303,-0.6085094213485718,4.619686126708984,1.5109162330627441,8.383735656738281,12.512839317321777,5.497096538543701,44.1959114074707
1785712349299298,399920960,0.7551865577697754,-0.06851858645677567,-0.24734462797641754,-0.6031749844551086,4.88493013381958,1.917973518371582,8.263056755065918,16.157917022705078,3.989894390106201,44.454349517822266
1785712349353895,399937627,0.7593068480491638,-0.0686793178319931,-0.24779845774173737,-0.5977734327316284,4.736203670501709,2.052022695541382,8.36154842376709,12.584624290466309,1.6472233533859253,45.76896667480469
1785712349354181,399954294,0.7631520628929138,-0.07022684812545776,-0.24824948608875275,-0.5924863815307617,4.215056419372559,1.7946196794509888,8.54054069519043,5.0085062980651855,-4.4521870613098145,46.40439224243164
1785712349357170,399970961,0.7668581008911133,-0.07207133620977402,-0.2490677684545517,-0.5871119499206543,4.081904411315918,1.415867567062378,8.44121265411377,5.028177738189697,-7.869526386260986,46.625186920166016
1785712349358787,399987628,0.7706002593040466,-0.07366079092025757,-0.25045299530029297,-0.5813978910446167,4.52135705947876,1.5442856550216675,8.103616714477539,9.261486053466797,-9.936546325683594,47.844093322753906
1785712349387448,400004295,0.774205207824707,-0.07528764009475708,-0.25230148434638977,-0.5755717754364014,4.915463447570801,1.7878135442733765,7.9125847816467285,11.039332389831543,-12.833703994750977,47.71855545043945
1785712349389690,400020962,0.7775493264198303,-0.07802173495292664,-0.254300594329834,-0.5697910785675049,4.765645980834961,1.8745166063308716,7.973318099975586,5.527778625488281,-18.44580078125,48.28824996948242
1785712349417480,400037629,0.7801858186721802,-0.08206796646118164,-0.25721585750579834,-0.5642836689949036,4.315786361694336,1.394842267036438,8.366724967956543,1.243823528289795,-29.57508087158203,45.856563568115234
1785712349419415,400054296,0.7827730178833008,-0.08539174497127533,-0.2609468400478363,-0.5584642291069031,4.0790252685546875,0.9128247499465942,8.271780967712402,8.808611869812012,-31.41208839416504,45.60065841674805
1785712349447144,400070963,0.7855787873268127,-0.08745112270116806,-0.26521462202072144,-0.55215984582901,4.951542854309082,1.209850788116455,7.860186576843262,18.674427032470703,-29.340232849121094,46.46601104736328
1785712349449508,400087630,0.7884892821311951,-0.08910325914621353,-0.26907020807266235,-0.545845627784729,5.493876934051514,1.64695143699646,7.487700939178467,19.39020347595215,-25.38299560546875,46.42216110229492
1785712349516469,400104297,0.7910178303718567,-0.0915791466832161,-0.2728421986103058,-0.5398725271224976,5.36875581741333,1.7131168842315674,7.609077453613281,13.745122909545898,-28.51828956604004,44.71357345581055
1785712349516927,400120964,0.7930777668952942,-0.09615854918956757,-0.2776351869106293,-0.5335737466812134,4.883718490600586,1.5314626693725586,8.483624458312988,6.410696506500244,-42.963233947753906,48.048641204833984
1785712349518337,400137631,0.7948687076568604,-0.10188505053520203,-0.28251487016677856,-0.5272471308708191,4.617464065551758,1.1724653244018555,8.51921558380127,0.34874197840690613,-48.17733383178711,49.34526062011719
1785712349518586,400154298,0.7964892983436584,-0.10728749632835388,-0.2876068949699402,-0.5209388732910156,5.674563884735107,1.3220818042755127,8.167033195495605,2.735154151916504,-48.48274612426758,47.849098205566406
1785712349537736,400170965,0.798204243183136,-0.11220362782478333,-0.2909142076969147,-0.5154126286506653,6.594683647155762,1.431126594543457,7.627687931060791,-2.4709243774414062,-36.20417785644531,44.25913619995117
1785712349567468,400187632,0.7997444868087769,-0.11829155683517456,-0.29160597920417786,-0.5112558603286743,5.7037672996521,1.298735499382019,7.104640007019043,-21.04433822631836,-25.2945499420166,40.485618591308594
1785712349569166,400204299,0.8000097870826721,-0.12707437574863434,-0.2937679588794708,-0.5074817538261414,5.0283074378967285,1.1511096954345703,7.076674461364746,-32.49989700317383,-45.09620666503906,38.10691833496094
1785712349597145,400220966,0.7998144030570984,-0.13720832765102386,-0.2983144223690033,-0.5024741291999817,5.210540771484375,0.9014707803726196,7.731886863708496,-29.52381706237793,-64.93522644042969,43.930809020996094
1785712349598805,400237633,0.7987481951713562,-0.1477413922548294,-0.3040350377559662,-0.4977324604988098,5.53327751159668,0.289787620306015,7.631059169769287,-29.02890968322754,-74.30741119384766,39.17025375366211
1785712349627147,400254300,0.7967835664749146,-0.1567765325307846,-0.31089064478874207,-0.49386733770370483,6.788969039916992,0.23201976716518402,6.8606109619140625,-19.663837432861328,-76.40253448486328,26.997041702270508
1785712349628739,400270967,0.7949097156524658,-0.16447585821151733,-0.31678086519241333,-0.4906289875507355,6.729754447937012,0.3951808214187622,6.224236011505127,-16.86501121520996,-65.70684051513672,22.056495666503906
1785712349677705,400287634,0.792506754398346,-0.17318841814994812,-0.3239052891731262,-0.48685216903686523,5.761737823486328,0.3621577024459839,6.239360332489014,-17.665637969970703,-77.63095092773438,24.0245361328125
1785712349677985,400304301,0.7889314889907837,-0.18420176208019257,-0.3342190086841583,-0.48161739110946655,5.816092014312744,0.16574512422084808,6.8345794677734375,-17.67656135559082,-107.05970001220703,29.370708465576172
1785712349687368,400320968,0.784023642539978,-0.1944638043642044,-0.346413254737854,-0.4769585132598877,7.326762676239014,-0.5069040656089783,7.005494117736816,-10.385597229003906,-117.10647583007812,17.72527503967285
1785712349717203,400337635,0.778925895690918,-0.2023485153913498,-0.3589441776275635,-0.4727467894554138,8.793464660644531,0.015558123588562012,6.727809906005859,2.215524911880493,-110.97944641113281,8.577601432800293
1785712349718723,400354302,0.7737786769866943,-0.20949570834636688,-0.370163232088089,-0.46942344307899475,8.191362380981445,0.7294873595237732,6.131669044494629,-0.3609214127063751,-100.43985748291016,3.663137197494507
1785712349747115,400370969,0.7673127055168152,-0.21806885302066803,-0.3808400332927704,-0.46758854389190674,6.693689346313477,0.8922645449638367,6.0461907386779785,-15.387191772460938,-103.36919403076172,-4.102761745452881
1785712349748771,400387636,0.7592711448669434,-0.22885002195835114,-0.3926723897457123,-0.4657730460166931,6.894401550292969,0.9289520382881165,6.459869384765625,-25.73629379272461,-120.66328430175781,-5.220711708068848
1785712349777153,400404303,0.7508968710899353,-0.24073129892349243,-0.40506821870803833,-0.46273404359817505,8.480826377868652,0.22786876559257507,6.539733409881592,-26.896526336669922,-129.95384216308594,2.1839702129364014
1785712349778724,400420970,0.7424643039703369,-0.2513047456741333,-0.4167497754096985,-0.4603402018547058,9.840102195739746,-0.29888129234313965,6.11064338684082,-24.31118392944336,-121.1991958618164,-3.7925877571105957
1785712349835193,400437637,0.7336300611495972,-0.26052165031433105,-0.42722052335739136,-0.4597814679145813,9.413002014160156,-0.17317380011081696,5.483792304992676,-27.171436309814453,-108.702880859375,-16.22809410095215
1785712349835642,400454304,0.7244502902030945,-0.26942309737205505,-0.43684685230255127,-0.46016165614128113,8.756179809570312,0.8393332362174988,5.260850429534912,-31.62721824645996,-102.77832794189453,-21.47178840637207
1785712349838274,400470971,0.7159043550491333,-0.2800314426422119,-0.4463016092777252,-0.4581257998943329,8.753244400024414,0.6962422728538513,5.642506122589111,-32.24272918701172,-109.896728515625,-1.9870096445083618
1785712349867128,400487638,0.7069759368896484,-0.2906968295574188,-0.4563874304294586,-0.45540302991867065,10.01436996459961,0.06764289736747742,5.502816677093506,-29.165481567382812,-115.68106842041016,-0.8501409888267517
1785712349869603,400504305,0.6987789869308472,-0.3002053499221802,-0.46454790234565735,-0.45363059639930725,10.684958457946777,-0.0184746365994215,5.050700664520264,-31.090776443481445,-98.50431823730469,-2.961092948913574
1785712349897687,400520972,0.6916779279708862,-0.30807098746299744,-0.47121134400367737,-0.45236533880233765,9.78569507598877,0.06272394955158234,4.8710432052612305,-27.225242614746094,-81.63920593261719,-4.13735294342041
1785712349899774,400537639,0.6850845813751221,-0.3155544400215149,-0.47716906666755676,-0.4509933590888977,8.536633491516113,0.19826221466064453,4.964069843292236,-26.181758880615234,-75.6767807006836,-1.7941142320632935
1785712349929667,400554306,0.6766725778579712,-0.32399898767471313,-0.4834027588367462,-0.45106714963912964,7.89748477935791,-0.46875065565109253,4.77761173248291,-38.541709899902344,-82.78931427001953,-11.688909530639648
1785712349930621,400570973,0.6662169694900513,-0.3320947289466858,-0.49144408106803894,-0.45205286145210266,9.808189392089844,0.22855259478092194,4.3050150871276855,-38.89647674560547,-94.88188934326172,-27.456764221191406
1785712350010530,400587640,0.6568179130554199,-0.3420567512512207,-0.4968215227127075,-0.4525008201599121,10.975735664367676,0.6774367690086365,3.948634386062622,-51.4963264465332,-86.13921356201172,-9.321076393127441
1785712350012084,400604307,0.6493220925331116,-0.3506722152233124,-0.49946004152297974,-0.4538176953792572,10.32762336730957,0.4368015229701996,3.382338523864746,-52.429656982421875,-61.03544616699219,-5.481268882751465
1785712350013893,400620974,0.6424106359481812,-0.35808080434799194,-0.5017665028572083,-0.4553220272064209,9.44360065460205,0.24150022864341736,3.533013105392456,-47.3127326965332,-53.328792572021484,-7.837975025177002
1785712350017659,400637641,0.6343586444854736,-0.367555171251297,-0.5061206817626953,-0.45424121618270874,9.453840255737305,-0.16828911006450653,3.600594997406006,-43.91599655151367,-79.14192962646484,2.0951921939849854
1785712350019618,400654308,0.6248452663421631,-0.37958359718322754,-0.5128163695335388,-0.45000579953193665,9.97790813446045,-0.6840802431106567,2.734545946121216,-40.460697174072266,-110.39317321777344,14.260282516479492
1785712350047495,400670975,0.6162821054458618,-0.38992616534233093,-0.518826961517334,-0.4460643529891968,10.675520896911621,-1.0438095331192017,1.7924171686172485,-33.89271545410156,-98.1159439086914,11.77988052368164
1785712350049559,400687642,0.610792338848114,-0.3954499363899231,-0.5215243101119995,-0.4456067681312561,10.920857429504395,-0.9160969853401184,1.6270804405212402,-27.823156356811523,-48.991241455078125,-1.8642925024032593
1785712350077194,400704309,0.6080345511436462,-0.397453248500824,-0.5219094157218933,-0.44714242219924927,10.3563814163208,-0.4019222855567932,2.166137456893921,-19.841999053955078,-13.27989387512207,-8.203011512756348
1785712350078885,400720976,0.6046072244644165,-0.40053659677505493,-0.5240775942802429,-0.44650211930274963,9.925366401672363,-0.14740212261676788,2.7259395122528076,-12.897637367248535,-32.40365982055664,-2.162259101867676
1785712350107168,400737643,0.5981834530830383,-0.40803152322769165,-0.529404878616333,-0.4420614540576935,10.228452682495117,-0.045257773250341415,2.4312846660614014,-16.095792770385742,-80.34471893310547,11.633665084838867
1785712350109526,400754310,0.590644121170044,-0.4179398715496063,-0.5348244905471802,-0.4363821744918823,10.773236274719238,-0.21242526173591614,1.4478743076324463,-24.36396026611328,-95.59809875488281,21.862775802612305
1785712350171305,400770977,0.5852418541908264,-0.4255320131778717,-0.537547767162323,-0.4329637885093689,10.767416954040527,-0.6839247941970825,0.7651240825653076,-25.22020721435547,-63.343257904052734,18.323469161987305
1785712350173583,400787644,0.5823068618774414,-0.4294946789741516,-0.5382745862007141,-0.4321048855781555,10.025934219360352,-0.8177065849304199,0.8168865442276001,-18.80015754699707,-27.896547317504883,7.795955657958984
1785712350173861,400804311,0.579362154006958,-0.432323157787323,-0.5396437644958496,-0.43153417110443115,9.099030494689941,-0.37672877311706543,1.2230545282363892,-13.446453094482422,-26.285369873046875,0.5171924233436584
1785712350197136,400820978,0.5742793083190918,-0.4368322491645813,-0.5425642728805542,-0.4301229417324066,9.298964500427246,0.05320964381098747,1.5389214754104614,-18.77467918395996,-47.8831672668457,-0.8539738059043884
1785712350198901,400837645,0.5679637789726257,-0.4439091682434082,-0.546108603477478,-0.4267648756504059,10.10848617553711,-0.06630624085664749,1.282608151435852,-23.509624481201172,-68.38752746582031,10.8936767578125
1785712350227424,400854312,0.562056839466095,-0.4511467516422272,-0.5494086742401123,-0.4227408766746521,10.40147876739502,-0.45179760456085205,0.4301508665084839,-21.106637954711914,-68.40552520751953,16.041893005371094
1785712350229530,400870979,0.5579732656478882,-0.45516639947891235,-0.5513675808906555,-0.42128849029541016,10.599241256713867,-0.6954168677330017,-0.15129081904888153,-16.62740707397461,-39.00459671020508,3.408399820327759
1785712350257142,400887646,0.5564875602722168,-0.4557158648967743,-0.5513511896133423,-0.4226788878440857,10.470526695251465,-0.6016566157341003,-0.004570324905216694,-11.6832914352417,-2.6308484077453613,-6.946142196655273
1785712350258737,400904313,0.556185245513916,-0.4551715552806854,-0.5510359406471252,-0.42407238483428955,9.960160255432129,-0.489268958568573,0.4457145035266876,-4.670516014099121,6.185981273651123,-6.729854106903076
1785712350287445,400920980,0.554681122303009,-0.45611149072647095,-0.5522907376289368,-0.42339909076690674,9.77824592590332,-0.6236591935157776,0.7234075665473938,-1.69998037815094,-15.167510986328125,-1.6209653615951538
1785712350325254,400937647,0.5518298149108887,-0.4584355056285858,-0.5546911954879761,-0.42147296667099,10.170425415039062,-0.8221734166145325,0.4643273651599884,-3.1100080013275146,-32.61136245727539,0.8978245258331299
1785712350325587,400954314,0.5497045516967773,-0.45998668670654297,-0.5561465620994568,-0.42064112424850464,10.68052864074707,-0.8355517387390137,-0.022129692137241364,-4.801837921142578,-20.569692611694336,-1.1197761297225952
1785712350347182,400970981,0.5496620535850525,-0.45962056517601013,-0.5554392337799072,-0.4220292866230011,10.680122375488281,-0.5704795122146606,-0.16204610466957092,-5.711147785186768,8.133604049682617,-3.978717088699341
1785712350348818,400987648,0.5508304238319397,-0.45840051770210266,-0.5533846616744995,-0.42452460527420044,10.104406356811523,-0.23352891206741333,0.15832199156284332,-6.7953338623046875,23.8249568939209,-3.6529555320739746
1785712350377116,401004315,0.5511699914932251,-0.4585212767124176,-0.5515868663787842,-0.4262893795967102,9.61038875579834,-0.14780239760875702,0.43932950496673584,-10.95517635345459,13.482787132263184,0.9871335029602051
1785712350379159,401020982,0.5496665239334106,-0.4611092805862427,-0.5508561730384827,-0.42638376355171204,9.72855281829834,-0.32364127039909363,0.40589597821235657,-16.652238845825195,-10.049081802368164,7.907812118530273
1785712350407135,401037649,0.547649085521698,-0.4648696482181549,-0.55009925365448,-0.4258737862110138,10.077847480773926,-0.7078744173049927,-0.022765394300222397,-20.500917434692383,-17.250349044799805,13.20828628540039
1785712350409008,401054316,0.5470881462097168,-0.46727684140205383,-0.5481188297271729,-0.42651307582855225,10.141088485717773,-1.1147173643112183,-0.4288269579410553,-18.67856788635254,0.5003001689910889,11.937762260437012
1785712350437364,401070983,0.5478852391242981,-0.46773260831832886,-0.5455694198608398,-0.4282556176185608,9.87654972076416,-1.1740213632583618,-0.3823443055152893,-12.80223560333252,17.02533531188965,6.243291854858398
1785712350482631,401087650,0.5486471652984619,-0.46765583753585815,-0.5439440011978149,-0.4294299781322479,9.679136276245117,-0.9605241417884827,-0.16412347555160522,-6.056921005249023,13.153840065002441,3.3094258308410645
1785712350483479,401104317,0.5488707423210144,-0.4680180549621582,-0.5434967279434204,-0.42931586503982544,9.735373497009277,-0.7962872982025146,-0.10995873063802719,-1.146187663078308,1.2573660612106323,4.433558940887451
1785712350497135,401120984,0.5490724444389343,-0.4684542715549469,-0.5433809757232666,-0.4287283718585968,9.855088233947754,-0.7845104336738586,-0.21104654669761658,1.2521026134490967,-1.8172019720077515,5.364452362060547
1785712350498964,401137651,0.5497443079948425,-0.4682901203632355,-0.5429309010505676,-0.42861706018447876,9.904922485351562,-0.7882696390151978,-0.22157572209835052,2.2674286365509033,4.50459623336792,3.7863261699676514
1785712350527167,401154318,0.5507948398590088,-0.4676602780818939,-0.5421374440193176,-0.4289602041244507,9.85490608215332,-0.669743537902832,-0.17273716628551483,2.5393528938293457,10.050779342651367,2.551032304763794
1785712350528834,401170985,0.5518172979354858,-0.46716588735580444,-0.5413516759872437,-0.4291771352291107,9.704122543334961,-0.5253250002861023,-0.062410444021224976,2.4307613372802734,9.111759185791016,3.425661087036133
1785712350557151,401187652,0.5524850487709045,-0.4671921133995056,-0.540818452835083,-0.4289618730545044,9.612257957458496,-0.4595344066619873,-0.020195022225379944,1.6678030490875244,3.9091577529907227,5.145777702331543
1785712350558909,401204319,0.5525819063186646,-0.46781492233276367,-0.5405498147010803,-0.4284966289997101,9.623737335205078,-0.46947184205055237,-0.03149845078587532,-0.7215866446495056,-1.7815426588058472,5.780319690704346
1785712350587374,401220986,0.5521600246429443,-0.4688413441181183,-0.5403862595558167,-0.4281245768070221,9.76133918762207,-0.5137987732887268,-0.09597034007310867,-3.9599034786224365,-4.998460292816162,5.059770584106445
1785712350637125,401237653,0.5516055822372437,-0.4699707627296448,-0.5400228500366211,-0.42805948853492737,9.893548965454102,-0.5358095169067383,-0.13789869844913483,-6.50640869140625,-4.045847415924072,4.531035423278809
1785712350637677,401254320,0.5513144731521606,-0.47108954191207886,-0.5392521619796753,-0.4281761944293976,9.886058807373047,-0.5975350141525269,-0.13224731385707855,-7.488675117492676,-0.9048265218734741,5.893163681030273
1785712350647170,401270987,0.5512133240699768,-0.4722481667995453,-0.5383989214897156,-0.4281039834022522,9.738924026489258,-0.7442460656166077,-0.11753597110509872,-6.568558216094971,-0.6171510815620422,7.583865642547607
1785712350648947,401287654,0.5509040355682373,-0.4734748899936676,-0.5379844903945923,-0.4276679456233978,9.558696746826172,-0.9195283055305481,-0.09683092683553696,-4.863354206085205,-4.432484149932861,7.176597595214844
1785712350677135,401304321,0.5501987934112549,-0.4745737314224243,-0.5382019877433777,-0.42708393931388855,9.580968856811523,-1.0131281614303589,-0.10469452291727066,-3.262136697769165,-8.396498680114746,4.042069435119629
1785712350678838,401320988,0.5493573546409607,-0.4755326211452484,-0.5386533141136169,-0.4265311062335968,9.783296585083008,-0.9694792628288269,-0.19266745448112488,-2.6070022583007812,-9.272953033447266,2.2425782680511475
1785712350707126,401337655,0.549014151096344,-0.4762532413005829,-0.5386638641357422,-0.4261557459831238,9.914726257324219,-0.8962873816490173,-0.27928853034973145,-2.0265533924102783,-4.483758449554443,3.591463804244995
1785712350709099,401354322,0.5491869449615479,-0.47671958804130554,-0.5383377075195312,-0.4258236289024353,9.843557357788086,-0.9115993976593018,-0.21490763127803802,-0.5257390737533569,-0.4151562452316284,5.1005706787109375
1785712350770263,401370989,0.5493045449256897,-0.477128803730011,-0.5382819175720215,-0.4252834618091583,9.77109432220459,-0.9683112502098083,-0.1754947006702423,1.071180820465088,-2.1559364795684814,4.626377582550049
1785712350773049,401387656,0.5491405725479126,-0.4775417745113373,-0.538665235042572,-0.4245457053184509,9.812268257141113,-0.9781417846679688,-0.1473269909620285,2.150301456451416,-5.515170097351074,3.1225979328155518
1785712350773527,401404323,0.548936665058136,-0.47782230377197266,-0.5391497015953064,-0.42387813329696655,9.907480239868164,-0.9500582814216614,-0.14641299843788147,2.555116891860962,-5.428561210632324,1.917462944984436
1785712350797139,401420990,0.548846960067749,-0.4779914915561676,-0.5394932627677917,-0.4233662486076355,9.910104751586914,-0.9029140472412109,-0.13897162675857544,2.3617537021636963,-3.63783597946167,1.7118569612503052
1785712350798954,401437657,0.5488093495368958,-0.4782271087169647,-0.5396811366081238,-0.4229094684123993,9.853351593017578,-0.8634379506111145,-0.1255304515361786,1.6241202354431152,-2.869633674621582,2.413810968399048
1785712350827144,401454324,0.5487022995948792,-0.478548139333725,-0.539885401725769,-0.4224241375923157,9.790160179138184,-0.8635340332984924,-0.14705030620098114,1.227853775024414,-3.5323243141174316,2.5821893215179443
1785712350828723,401470991,0.5485033392906189,-0.4789334535598755,-0.5400705337524414,-0.4220091700553894,9.796158790588379,-0.8657436966896057,-0.14296208322048187,0.3664472997188568,-3.756870985031128,2.351252317428589
1785712350857601,401487658,0.5482476353645325,-0.4793698787689209,-0.5401541590690613,-0.4217384457588196,9.829256057739258,-0.8832933902740479,-0.15175336599349976,-0.8442587852478027,-3.2583587169647217,2.1661369800567627
1785712350859862,401504325,0.5480149984359741,-0.4798316955566406,-0.5401146411895752,-0.4215661585330963,9.857487678527832,-0.9303379058837891,-0.13197576999664307,-1.5856566429138184,-2.4579484462738037,2.3618431091308594
1785712350900850,401520992,0.547873318195343,-0.48029348254203796,-0.5400201082229614,-0.4213455021381378,9.819987297058105,-0.9897972941398621,-0.16839349269866943,-1.2665610313415527,-2.0735020637512207,2.9886374473571777
1785712350917153,401537659,0.5478147864341736,-0.4806481599807739,-0.5399340391159058,-0.4211277663707733,9.760597229003906,-1.0186762809753418,-0.1946837306022644,-0.5736988186836243,-1.4768027067184448,2.792315721511841
1785712350918916,401554326,0.547798752784729,-0.48085352778434753,-0.5398555994033813,-0.4210143983364105,9.733938217163086,-1.0033133029937744,-0.19839991629123688,-0.235784113407135,-0.5710287094116211,1.9423516988754272
1785712350947148,401570993,0.5477958917617798,-0.48098868131637573,-0.5397582054138184,-0.42098870873451233,9.735486030578613,-0.9688273668289185,-0.16978542506694794,-0.3079414963722229,0.04163984954357147,1.4515422582626343
1785712350948875,401587660,0.5477651953697205,-0.481126070022583,-0.5396889448165894,-0.4209604561328888,9.73033332824707,-0.9591204524040222,-0.1664038449525833,-0.31757187843322754,-0.18260575830936432,1.2952535152435303
1785712350977147,401604327,0.5477021932601929,-0.481299489736557,-0.5396138429641724,-0.4209402799606323,9.737658500671387,-0.9325132369995117,-0.17169569432735443,-0.608147919178009,-0.3586546778678894,1.3242853879928589
1785712350980119,401620994,0.5476844310760498,-0.48146510124206543,-0.5394236445426941,-0.4210178554058075,9.745494842529297,-0.8871663212776184,-0.22676663100719452,-1.1231039762496948,0.587670624256134,1.4381402730941772
1785712351033416,401637661,0.5476676821708679,-0.4816717207431793,-0.539131224155426,-0.4211779534816742,9.753850936889648,-0.8707280158996582,-0.21851846575737,-1.8760149478912354,1.1306661367416382,1.6207011938095093
1785712351033874,401654328,0.5475249290466309,-0.4820248782634735,-0.5388978123664856,-0.4212583005428314,9.75927734375,-0.91261225938797,-0.23133134841918945,-2.378830671310425,-0.24657346308231354,1.9042977094650269
1785712351037435,401670995,0.54734206199646,-0.4824039340019226,-0.5387803912162781,-0.421211838722229,9.785609245300293,-0.9996654391288757,-0.28814244270324707,-1.8034799098968506,-1.3279545307159424,1.976141333580017
1785712351067138,401687662,0.5472783446311951,-0.48254966735839844,-0.5387255549430847,-0.42119815945625305,9.806610107421875,-1.0540601015090942,-0.33200913667678833,-0.4691733717918396,-0.33795955777168274,1.1253002882003784
1785712351068883,401704329,0.5474334359169006,-0.48238155245780945,-0.5386307239532471,-0.4213106036186218,9.783695220947266,-1.0847623348236084,-0.29346615076065063,0.8527877330780029,1.9501639604568481,0.2546030282974243
1785712351097146,401720996,0.5476595759391785,-0.4820520877838135,-0.5386012196540833,-0.42143136262893677,9.748737335205078,-1.0335187911987305,-0.24262705445289612,1.8545963764190674,2.462155342102051,-0.3859961926937103
1785712351099068,401737663,0.5477555990219116,-0.48175665736198425,-0.5387917160987854,-0.421400785446167,9.717915534973145,-0.973759651184082,-0.1921786218881607,2.4934284687042236,0.5516527891159058,-0.7966958284378052
1785712351127464,401754330,0.5477229356765747,-0.4815591275691986,-0.5391115546226501,-0.4212600290775299,9.726600646972656,-0.9253804683685303,-0.21695277094841003,2.482056140899658,-1.0616848468780518,-0.8212199807167053
1785712351128818,401770997,0.5477186441421509,-0.48136818408966064,-0.5393635034561157,-0.4211612641811371,9.7318754196167,-0.9013171792030334,-0.2112806737422943,2.1990933418273926,-0.5813954472541809,-0.6481421589851379
1785712351158963,401787664,0.5477645993232727,-0.48116353154182434,-0.5395610928535461,-0.4210822880268097,9.711220741271973,-0.8788570165634155,-0.17962460219860077,2.1872477531433105,-0.08516222983598709,-0.4484271705150604
1785712351160189,401804331,0.5477657914161682,-0.4810100793838501,-0.539783775806427,-0.4209708869457245,9.726153373718262,-0.8636589050292969,-0.18868382275104523,2.038201093673706,-0.6025260090827942,-0.3492675721645355
1785712351187729,401820998,0.5476675033569336,-0.48093926906585693,-0.5400604605674744,-0.4208243489265442,9.77222728729248,-0.8624051213264465,-0.1552252173423767,1.6857832670211792,-1.5304356813430786,-0.3765963315963745
1785712351217151,401837665,0.5475534796714783,-0.4809392988681793,-0.5402609705924988,-0.4207157492637634,9.794856071472168,-0.8590719699859619,-0.15884095430374146,1.0045748949050903,-1.3824326992034912,-0.05084121227264404
1785712351218755,401854332,0.5474411249160767,-0.48097744584083557,-0.5403816103935242,-0.42066314816474915,9.78690242767334,-0.8861557841300964,-0.15437453985214233,0.427840918302536,-1.0007009506225586,0.14849603176116943
1785712351247158,401870999,0.5472579598426819,-0.48109403252601624,-0.5404947996139526,-0.4206228256225586,9.778359413146973,-0.8982940912246704,-0.147236168384552,-0.16988903284072876,-1.4226188659667969,0.21325773000717163
1785712351248960,401887666,0.547011137008667,-0.4813210964202881,-0.5406031608581543,-0.42054465413093567,9.781734466552734,-0.8862118124961853,-0.17382624745368958,-0.667902410030365,-2.0866668224334717,0.5976018309593201
1785712351292902,401904333,0.5467490553855896,-0.4816272556781769,-0.5406373143196106,-0.4204910397529602,9.805044174194336,-0.9104079604148865,-0.16598081588745117,-1.3208082914352417,-2.01200532913208,1.0005792379379272
1785712351293706,401921000,0.5464841723442078,-0.48199450969696045,-0.5406286120414734,-0.4204259514808655,9.831754684448242,-0.9359443187713623,-0.16900932788848877,-1.641492486000061,-2.076831579208374,1.4043123722076416
1785712351307166,401937667,0.5462760925292969,-0.48232588171958923,-0.5405733585357666,-0.4203871488571167,9.893082618713379,-0.9546535611152649,-0.19223558902740479,-1.550644040107727,-1.5003660917282104,1.4899226427078247
1785712351308766,401954334,0.5462836623191833,-0.48250243067741394,-0.5403558015823364,-0.420454740524292,9.868612289428711,-0.976738691329956,-0.17831607162952423,-1.1178407669067383,0.7107588052749634,1.6761910915374756
1785712351337439,401971001,0.546386182308197,-0.4825756549835205,-0.5400903820991516,-0.4205781817436218,9.810066223144531,-0.9786401987075806,-0.16010403633117676,-0.7607997059822083,1.7261743545532227,1.5154074430465698
1785712351367220,401987668,0.5463888049125671,-0.48267439007759094,-0.5399838089942932,-0.42059841752052307,9.752257347106934,-0.9549604058265686,-0.14013910293579102,-0.3459699749946594,0.34219852089881897,1.181693196296692
1785712351368947,402004335,0.5463326573371887,-0.4828079044818878,-0.5399149656295776,-0.4206066131591797,9.791726112365723,-0.9195245504379272,-0.17416946589946747,-0.5185034275054932,-0.1592085361480713,1.0598598718643188
1785712351423997,402021002,0.5463955402374268,-0.482889860868454,-0.5396982431411743,-0.4207089841365814,9.834994316101074,-0.8897533416748047,-0.19407051801681519,-0.7071537971496582,1.2993898391723633,1.3496675491333008
1785712351424452,402037669,0.5465977787971497,-0.4829113483428955,-0.5393171310424805,-0.420910120010376,9.827799797058105,-0.888200044631958,-0.19836896657943726,-0.8581534624099731,2.936502456665039,1.7030714750289917
1785712351427207,402054336,0.5467984676361084,-0.4829753339290619,-0.5389013886451721,-0.4211084842681885,9.79111385345459,-0.8933879137039185,-0.18660105764865875,-1.112462043762207,2.9280247688293457,1.98109769821167
1785712351428924,402071003,0.5469182729721069,-0.48316431045532227,-0.5385153293609619,-0.42123016715049744,9.756773948669434,-0.9042490124702454,-0.19814351201057434,-1.4813103675842285,1.900180459022522,2.3994743824005127
1785712351457163,402087670,0.5469760298728943,-0.4834136664867401,-0.5381559133529663,-0.4213285446166992,9.735358238220215,-0.9161574840545654,-0.2247476577758789,-1.751524567604065,1.317126750946045,2.4423437118530273
1785712351458803,402104337,0.5470502376556396,-0.4836035966873169,-0.537784993648529,-0.4214875400066376,9.714560508728027,-0.9216101169586182,-0.22472211718559265,-1.729856014251709,1.7949442863464355,2.0797317028045654
1785712351487379,402121004,0.5471563935279846,-0.4837550222873688,-0.5373690724372864,-0.42170658707618713,9.714869499206543,-0.9178891181945801,-0.21991318464279175,-1.831436276435852,2.3926682472229004,1.9530900716781616
1785712351517181,402137671,0.547178328037262,-0.4840175211429596,-0.5370369553565979,-0.4217999577522278,9.727190017700195,-0.9250335693359375,-0.20956462621688843,-1.8220746517181396,1.0260127782821655,2.3133583068847656
1785712351518752,402154338,0.5471047163009644,-0.48440060019493103,-0.5368595719337463,-0.4216814935207367,9.739267349243164,-0.9575012922286987,-0.2854441702365875,-1.3618271350860596,-0.9639723300933838,2.7629380226135254
1785712351555214,402171005,0.5471002459526062,-0.4846574366092682,-0.5367178320884705,-0.42157259583473206,9.744606018066406,-0.991390585899353,-0.3013737201690674,-0.588900089263916,-0.44498226046562195,2.3428385257720947
1785712351555482,402187672,0.5473532676696777,-0.4846847355365753,-0.5363501906394958,-0.42168039083480835,9.724470138549805,-1.0027281045913696,-0.2670963406562805,-0.32177233695983887,2.742166042327881,2.179429531097412
1785712351577210,402204339,0.5475969314575195,-0.4846811592578888,-0.5360326170921326,-0.4217720329761505,9.683328628540039,-0.9838435649871826,-0.20265676081180573,-0.03163168206810951,2.554476022720337,1.9317160844802856
1785712351579730,402221006,0.5475428104400635,-0.48489871621131897,-0.5359660387039185,-0.4216769337654114,9.664682388305664,-0.9728557467460632,-0.20011718571186066,-0.44137078523635864,-0.7517582774162292,1.7500834465026855
1785712351607178,402237673,0.5472615957260132,-0.48526981472969055,-0.5361248850822449,-0.4214133024215698,9.775358200073242,-0.9576501250267029,-0.2178899198770523,-0.5011125206947327,-3.4452929496765137,1.5392658710479736
1785712351608759,402254340,0.5471231341362,-0.4857037663459778,-0.5359950661659241,-0.42125797271728516,9.84575366973877,-0.9366812705993652,-0.29500269889831543,-1.4972800016403198,-1.6539145708084106,2.7396047115325928
1785712351637863,402271007,0.5473650097846985,-0.48598113656044006,-0.5354743599891663,-0.4212859272956848,9.792105674743652,-0.9656722545623779,-0.30154621601104736,-1.4455682039260864,2.2831995487213135,3.8799593448638916
1785712351686731,402287674,0.5475873947143555,-0.48619765043258667,-0.5350839495658875,-0.42124325037002563,9.666878700256348,-1.048431396484375,-0.19491346180438995,-0.644210696220398,1.6613870859146118,3.429764747619629
1785712351687184,402304341,0.5475336313247681,-0.486483097076416,-0.5350910425186157,-0.4209747016429901,9.661706924438477,-1.0905311107635498,-0.15720736980438232,0.15474553406238556,-1.8061436414718628,2.404449939727783
1785712351697165,402321008,0.5474703907966614,-0.4866841435432434,-0.5351627469062805,-0.42073315382003784,9.726069450378418,-1.028488039970398,-0.19514904916286469,0.5285884737968445,-1.7502310276031494,1.7484956979751587
1785712351698809,402337675,0.5475223064422607,-0.4868102967739105,-0.5350266098976135,-0.42069289088249207,9.74640941619873,-0.9824205040931702,-0.21179327368736267,-0.14624211192131042,0.3453872501850128,1.7433925867080688
1785712351727142,402354342,0.5475486516952515,-0.48706191778182983,-0.5347943902015686,-0.42066264152526855,9.74596118927002,-0.9792525172233582,-0.1742081642150879,-1.0175156593322754,0.28343015909194946,2.414585828781128
1785712351728842,402371009,0.5474381446838379,-0.48747581243515015,-0.5346757769584656,-0.4204777479171753,9.774675369262695,-1.0171664953231812,-0.21261006593704224,-1.1899274587631226,-1.635306715965271,2.816788673400879
1785712351757482,402387676,0.5473666787147522,-0.4878416657447815,-0.5346000790596008,-0.4202429950237274,9.816710472106934,-1.0693795680999756,-0.2606164515018463,-0.5712913274765015,-1.682293176651001,2.796401023864746
1785712351758810,402404343,0.5474324226379395,-0.4880366027355194,-0.5344033241271973,-0.42018094658851624,9.812737464904785,-1.096105933189392,-0.2865464687347412,-0.4516158998012543,0.35049059987068176,2.320478677749634
1785712351787711,402421010,0.5475359559059143,-0.4881594181060791,-0.5341565012931824,-0.4202173352241516,9.803417205810547,-1.1143206357955933,-0.23236355185508728,-0.5602905750274658,1.2165968418121338,1.9617342948913574
1785712351822555,402437677,0.5476579666137695,-0.48825597763061523,-0.5339881181716919,-0.42016008496284485,9.776606559753418,-1.0991170406341553,-0.21255651116371155,0.1702924370765686,0.7496901154518127,2.0069921016693115
1785712351822999,402454344,0.5478602051734924,-0.48826470971107483,-0.5338915586471558,-0.420009046792984,9.742868423461914,-1.0952560901641846,-0.23175591230392456,1.323824405670166,0.7125388383865356,2.028724193572998
1785712351847144,402471011,0.5481252670288086,-0.48810943961143494,-0.5338536500930786,-0.4198918044567108,9.726954460144043,-1.0564841032028198,-0.20804621279239655,2.197492837905884,1.3090523481369019,1.282940149307251
1785712351848749,402487678,0.5483910441398621,-0.4879503548145294,-0.5337797999382019,-0.41982364654541016,9.701526641845703,-1.0128767490386963,-0.1722542643547058,1.9309476613998413,1.622058629989624,1.2062362432479858
1785712351877168,402504345,0.5485866069793701,-0.4878937900066376,-0.5336935520172119,-0.41974329948425293,9.68457317352295,-1.000135898590088,-0.15905284881591797,1.3166530132293701,1.0734858512878418,1.467370867729187
1785712351878795,402521012,0.5485531687736511,-0.4880739748477936,-0.5337006449699402,-0.41956838965415955,9.721330642700195,-0.986050009727478,-0.13214531540870667,0.2731786370277405,-1.11976158618927,1.7183879613876343
1785712351907179,402537679,0.5484344363212585,-0.4884014427661896,-0.5336556434631348,-0.4193997383117676,9.806997299194336,-0.9793692827224731,-0.20427393913269043,-0.7426913976669312,-1.6407238245010376,2.16412615776062
1785712351908785,402554346,0.5484339594841003,-0.48872533440589905,-0.5333890318870544,-0.41936254501342773,9.826492309570312,-1.003213882446289,-0.21223308145999908,-1.4548656940460205,0.08025100082159042,2.739579439163208
1785712351950227,402571013,0.548474133014679,-0.4890913665294647,-0.5330260396003723,-0.4193446636199951,9.778914451599121,-1.0472110509872437,-0.1588626652956009,-1.8245015144348145,0.5357536673545837,3.2624049186706543
1785712351967474,402587680,0.5484527349472046,-0.489510178565979,-0.5327525734901428,-0.4192313551902771,9.723817825317383,-1.093961238861084,-0.17805452644824982,-1.6214377880096436,-0.5014710426330566,3.336591958999634
1785712351969110,402604347,0.5484188795089722,-0.4898416996002197,-0.5325769186019897,-0.41911178827285767,9.671167373657227,-1.1266117095947266,-0.1753098964691162,-1.0298738479614258,-0.6854214668273926,2.675201892852783
1785712351997185,402621014,0.5483461022377014,-0.49011296033859253,-0.5323941707611084,-0.4191218316555023,9.690278053283691,-1.115247130393982,-0.17352792620658875,-1.4293551445007324,-0.19128847122192383,1.8771227598190308
1785712351998754,402637681,0.5482659935951233,-0.4904056191444397,-0.5321570634841919,-0.41918542981147766,9.715339660644531,-1.0898562669754028,-0.18035940825939178,-1.8866122961044312,0.10437174141407013,1.9153558015823364
1785712352027855,402654348,0.5481894016265869,-0.49073952436447144,-0.5318567156791687,-0.4192759394645691,9.743120193481445,-1.0574510097503662,-0.20771506428718567,-2.310688018798828,0.32741352915763855,2.1875741481781006
1785712352028850,402671015,0.548168420791626,-0.49115046858787537,-0.531423807144165,-0.41937094926834106,9.770549774169922,-1.091732144355774,-0.24164174497127533,-2.8119287490844727,0.8229551911354065,3.0598018169403076
1785712352080836,402687682,0.5482416749000549,-0.4915667772293091,-0.5308508276939392,-0.4195132851600647,9.730552673339844,-1.163954734802246,-0.24238845705986023,-3.0918242931365967,1.8397541046142578,3.645641326904297
1785712352081285,402704349,0.5482820868492126,-0.49193310737609863,-0.5303430557250977,-0.4196734130382538,9.703410148620605,-1.2361749410629272,-0.23953911662101746,-2.891007900238037,1.6776129007339478,3.080587148666382
1785712352087485,402721016,0.5482679605484009,-0.49217021465301514,-0.5300354957580566,-0.41980212926864624,9.705344200134277,-1.2560805082321167,-0.26999348402023315,-1.8956983089447021,0.9900333881378174,1.8924713134765625
1785712352117173,402737683,0.5483089685440063,-0.49225080013275146,-0.529836118221283,-0.41990572214126587,9.723616600036621,-1.2369691133499146,-0.28858545422554016,-0.7151578664779663,1.150234341621399,1.209079623222351
1785712352119563,402754350,0.5484262108802795,-0.49221163988113403,-0.5297014117240906,-0.4199686646461487,9.755796432495117,-1.1954561471939087,-0.2807176113128662,0.3293409049510956,1.3917428255081177,0.9271541237831116
1785712352147159,402771017,0.548581063747406,-0.4921170473098755,-0.5296158790588379,-0.419985294342041,9.75212574005127,-1.1529802083969116,-0.2548356056213379,0.9754915833473206,1.3463634252548218,0.8416651487350464
1785712352148837,402787684,0.5487146973609924,-0.49201273918151855,-0.5295586585998535,-0.42000502347946167,9.740962028503418,-1.1382697820663452,-0.24429486691951752,1.0115159749984741,1.2004351615905762,0.6370840072631836
1785712352177162,402804351,0.5487682223320007,-0.4919849932193756,-0.5295113921165466,-0.42002686858177185,9.708456993103027,-1.117995023727417,-0.25204190611839294,0.472394198179245,0.6567159295082092,0.6426545977592468
1785712352178946,402821018,0.5487095713615417,-0.4920613765716553,-0.5294675827026367,-0.4200694262981415,9.70473575592041,-1.129827618598938,-0.20573920011520386,-0.3648272752761841,0.004680721089243889,0.6075652241706848
1785712352213848,402837685,0.5485978722572327,-0.4921679198741913,-0.529434084892273,-0.420132577419281,9.68288516998291,-1.146937608718872,-0.21586892008781433,-0.703427255153656,-0.24557454884052277,0.45072588324546814
1785712352214266,402854352,0.5485031604766846,-0.492269903421402,-0.5293629765510559,-0.42022624611854553,9.685944557189941,-1.1472080945968628,-0.24686916172504425,-0.8479341268539429,0.07422561198472977,0.4951704144477844
1785712352237508,402871019,0.5484616160392761,-0.4923531115055084,-0.5292704701423645,-0.420299768447876,9.668201446533203,-1.1755625009536743,-0.23092681169509888,-0.5856215953826904,0.33429694175720215,0.7284891605377197
1785712352267236,402887686,0.5484497547149658,-0.4923756420612335,-0.5292255878448486,-0.4203452169895172,9.670225143432617,-1.1962556838989258,-0.25250884890556335,-0.015815841034054756,0.34279394149780273,0.5375528931617737
1785712352269163,402904353,0.5484619140625,-0.4923061728477478,-0.5292519927024841,-0.42037758231163025,9.673787117004395,-1.2197620868682861,-0.2287127673625946,0.6646431684494019,0.3820710778236389,0.07996926456689835
1785712352297176,402921020,0.5484782457351685,-0.4921706020832062,-0.5293547511100769,-0.42038580775260925,9.700177192687988,-1.1914304494857788,-0.2307804673910141,1.2363954782485962,0.21886692941188812,-0.3164961338043213
1785712352298953,402937687,0.5485062599182129,-0.49197936058044434,-0.529525101184845,-0.4203585088253021,9.69841480255127,-1.1841942071914673,-0.26519620418548584,1.810555338859558,0.04651906341314316,-0.5803965330123901
1785712352344127,402954354,0.5485527515411377,-0.4917207956314087,-0.5297426581382751,-0.420326292514801,9.7102689743042,-1.1556768417358398,-0.22072485089302063,2.28118896484375,0.11361154168844223,-0.9135410189628601
1785712352344895,402971021,0.5486302375793457,-0.49144694209098816,-0.5299093127250671,-0.42033517360687256,9.771048545837402,-1.093571424484253,-0.2390817254781723,2.148277997970581,0.6014758348464966,-0.8631992936134338
1785712352357241,402987688,0.5487009286880493,-0.49121150374412537,-0.5299985408782959,-0.42040571570396423,9.815519332885742,-1.0651004314422607,-0.1845923811197281,1.5310568809509277,0.9649519324302673,-0.7143765687942505
1785712352359123,403004355,0.5486658215522766,-0.49109500646591187,-0.53013676404953,-0.4204135239124298,9.80960464477539,-1.0823231935501099,-0.19855497777462006,1.0966846942901611,-0.16115513443946838,-0.5152122974395752
1785712352387451,403021022,0.548560380935669,-0.49102678894996643,-0.5303632616996765,-0.4203451871871948,9.797062873840332,-1.1035056114196777,-0.1846931427717209,1.2089706659317017,-1.1476666927337646,-0.5537722110748291
1785712352417522,403037689,0.548579216003418,-0.4908533990383148,-0.5304927825927734,-0.4203594923019409,9.749320030212402,-1.1015304327011108,-0.16895699501037598,1.4434101581573486,0.2542765140533447,-0.5626213550567627
1785712352419863,403054356,0.5487143397331238,-0.49059468507766724,-0.5304652452468872,-0.42051994800567627,9.72620964050293,-1.081546425819397,-0.12674261629581451,1.1711984872817993,2.009732484817505,-0.5590612292289734
1785712352475002,403071023,0.5486496090888977,-0.4905566871166229,-0.5304607152938843,-0.4206541180610657,9.730348587036133,-1.0783480405807495,-0.1015857458114624,-0.17265520989894867,0.46665695309638977,-0.31065642833709717
1785712352475454,403087690,0.5484188795089722,-0.490711510181427,-0.5305641889572144,-0.42064404487609863,9.743066787719727,-1.0914393663406372,-0.13977046310901642,-0.6224910616874695,-1.5909457206726074,0.09196880459785461
1785712352478554,403104357,0.5482219457626343,-0.4909554421901703,-0.530607283115387,-0.42056187987327576,9.810917854309082,-1.1161589622497559,-0.1927974671125412,-0.7560997605323792,-1.7411898374557495,0.9903087019920349
1785712352479437,403121024,0.5482816696166992,-0.4911341071128845,-0.5303162336349487,-0.42064228653907776,9.813847541809082,-1.1322978734970093,-0.2540074288845062,-1.2025163173675537,1.1912018060684204,2.0087080001831055
1785712352507162,403137691,0.5485115051269531,-0.4911231994628906,-0.529931902885437,-0.42083996534347534,9.741211891174316,-1.1845498085021973,-0.21262739598751068,-0.6109140515327454,3.1076972484588623,1.682222843170166
1785712352508764,403154358,0.5485659241676331,-0.49108290672302246,-0.5298475623130798,-0.420922189950943,9.716789245605469,-1.2067527770996094,-0.1337508112192154,0.1953224390745163,1.031807541847229,0.4900221526622772
1785712352537435,403171025,0.5485561490058899,-0.4909088909626007,-0.5300289392471313,-0.4209093153476715,9.773859977722168,-1.1582965850830078,-0.19786372780799866,1.5995581150054932,-0.1389361023902893,-0.7225343585014343
1785712352567182,403187692,0.5487995743751526,-0.4904494285583496,-0.5301212668418884,-0.4210115969181061,9.768255233764648,-1.0769662857055664,-0.21521785855293274,2.8526535034179688,2.334226608276367,-1.1638797521591187
1785712352569101,403204359,0.5491495132446289,-0.48991072177886963,-0.5301140546798706,-0.42119157314300537,9.693034172058105,-1.0270196199417114,-0.17188286781311035,2.9407541751861572,3.588409900665283,-1.1022682189941406
1785712352607586,403221026,0.5492674112319946,-0.4896007478237152,-0.5302144289016724,-0.4212719202041626,9.699734687805176,-0.9809145927429199,-0.08630067855119705,1.9700970649719238,1.3383212089538574,-0.9270773530006409
1785712352607848,403237693,0.5491750240325928,-0.4895491898059845,-0.530358076095581,-0.42127153277397156,9.729222297668457,-0.9568668007850647,-0.12814679741859436,0.7054826021194458,-0.6126686930656433,-0.4347372055053711
1785712352627166,403254360,0.5490511059761047,-0.4896700084209442,-0.5302492380142212,-0.4214296340942383,9.771982192993164,-0.9687767624855042,-0.18187473714351654,-1.360405683517456,0.25938624143600464,0.35382023453712463
1785712352628774,403271027,0.5489126443862915,-0.4899352192878723,-0.5298948884010315,-0.42174720764160156,9.76147174835205,-1.0321248769760132,-0.15005703270435333,-3.2479465007781982,1.2514302730560303,1.0626261234283447
1785712352657180,403287694,0.5486569404602051,-0.49034690856933594,-0.5296255946159363,-0.4219399094581604,9.717829704284668,-1.1199519634246826,-0.1732451319694519,-3.4931371212005615,-0.3420448303222656,1.4413610696792603
1785712352658751,403304361,0.5484010577201843,-0.49073779582977295,-0.5295482277870178,-0.4219150245189667,9.720065116882324,-1.1873552799224854,-0.20101775228977203,-2.066420078277588,-1.7404729127883911,1.5381453037261963
1785712352687713,403321028,0.5482856035232544,-0.49089255928993225,-0.5295500755310059,-0.42188265919685364,9.741118431091309,-1.2419167757034302,-0.25178101658821106,-0.4461475908756256,-0.8685522079467773,0.8458786010742188
1785712352740148,403337695,0.5483860373497009,-0.49073654413223267,-0.5295008420944214,-0.42199528217315674,9.744939804077148,-1.2189006805419922,-0.2375677078962326,0.7792727947235107,1.5005393028259277,-0.03403928130865097
1785712352740596,403354362,0.5485880374908447,-0.4903930723667145,-0.5295132398605347,-0.42211678624153137,9.699277877807617,-1.1895724534988403,-0.17069962620735168,1.9750659465789795,2.211663007736206,-0.663381814956665
1785712352747488,403371029,0.5487210154533386,-0.49006539583206177,-0.5297278165817261,-0.4220549762248993,9.659147262573242,-1.157913088798523,-0.14479395747184753,2.935823678970337,0.5338903069496155,-0.7967086434364319
1785712352749205,403387696,0.5488125681877136,-0.48976659774780273,-0.5299927592277527,-0.42195039987564087,9.680482864379883,-1.0669244527816772,-0.16067683696746826,2.9903147220611572,-0.03592180833220482,-0.8208998441696167
1785712352778407,403404363,0.549027681350708,-0.48941323161125183,-0.5300886034965515,-0.4219602644443512,9.667215347290039,-0.9909076690673828,-0.14229655265808105,2.7057576179504395,1.5959720611572266,-0.5233058929443359
1785712352780019,403421030,0.5490915179252625,-0.4892357289791107,-0.5302268266677856,-0.4219091534614563,9.66915225982666,-0.9503291845321655,-0.116832435131073,1.8774168491363525,0.16852514445781708,-0.23413845896720886
1785712352807181,403437697,0.5488638281822205,-0.489423006772995,-0.5304655432701111,-0.4216883182525635,9.716867446899414,-0.9139763712882996,-0.14835955202579498,0.42950576543807983,-2.9035322666168213,0.5528437495231628
1785712352809648,403454364,0.5485655665397644,-0.48979872465133667,-0.5305553078651428,-0.42152684926986694,9.732585906982422,-0.9470922350883484,-0.19063784182071686,-1.1674011945724487,-2.9452426433563232,1.3127083778381348
1785712352839343,403471031,0.548270583152771,-0.4901919662952423,-0.5304500460624695,-0.42158588767051697,9.715534210205078,-1.0037257671356201,-0.18993426859378815,-2.5913138389587402,-1.506961464881897,1.2105778455734253
1785712352871195,403487698,0.5478684306144714,-0.4906666576862335,-0.5303038954734802,-0.42174026370048523,9.712599754333496,-1.0439295768737793,-0.16051305830478668,-3.725828170776367,-1.6580764055252075,0.9759013652801514
1785712352871867,403504365,0.5473349690437317,-0.4912123680114746,-0.5303608179092407,-0.4217263162136078,9.76777458190918,-1.1023203134536743,-0.18384015560150146,-3.234807014465332,-3.675922155380249,0.8029005527496338
1785712352897165,403521032,0.5468341708183289,-0.49171724915504456,-0.5305851101875305,-0.4215054512023926,9.859966278076172,-1.1843785047531128,-0.23841127753257751,-1.7310473918914795,-4.767279624938965,0.9617378115653992
1785712352898764,403537699,0.5465644598007202,-0.4919795095920563,-0.5307489633560181,-0.42134320735931396,9.902873992919922,-1.2546344995498657,-0.2896876633167267,-0.4251324236392975,-2.7963175773620605,0.7297378182411194
1785712352927170,403554366,0.5465869307518005,-0.4918762743473053,-0.5307860374450684,-0.4213877022266388,9.862382888793945,-1.3144549131393433,-0.24651508033275604,0.8139268159866333,0.5040515065193176,-0.10661286860704422
1785712352928735,403571033,0.5467682480812073,-0.4914722740650177,-0.5309164524078369,-0.42145949602127075,9.788578033447266,-1.2585958242416382,-0.18317516148090363,2.652675151824951,1.6961945295333862,-1.1627908945083618
1785712352957507,403587700,0.5469584465026855,-0.4909226596355438,-0.5312610864639282,-0.421419233083725,9.74776554107666,-1.150246500968933,-0.14016543328762054,4.258989334106445,0.9668475389480591,-1.9719475507736206
1785712352959830,403604367,0.5472033023834229,-0.49030736088752747,-0.531599760055542,-0.4213900566101074,9.742874145507812,-1.0005502700805664,-0.12787339091300964,4.633734226226807,1.4152171611785889,-2.07576847076416
1785712353000048,403621034,0.5474655032157898,-0.4897638261318207,-0.5317243933677673,-0.4215247929096222,9.751112937927246,-0.8836157321929932,-0.1390160471200943,3.2022600173950195,2.627805471420288,-1.6583070755004883
1785712353017244,403637701,0.5476321578025818,-0.48952317237854004,-0.5315818786621094,-0.4217672348022461,9.76994800567627,-0.8490924835205078,-0.12782472372055054,0.5736283659934998,2.768700361251831,-0.3330034911632538
1785712353019192,403654368,0.5476498603820801,-0.48965856432914734,-0.5312750935554504,-0.4219735860824585,9.760198593139648,-0.8921921253204346,-0.1392730474472046,-1.6888246536254883,1.630523681640625,1.2983142137527466
1785712353047488,403671035,0.5475518107414246,-0.49003490805625916,-0.5309128761291504,-0.42211976647377014,9.765050888061523,-1.0152782201766968,-0.17578279972076416,-2.9256749153137207,0.513925313949585,2.255768299102783
1785712353049096,403687702,0.5474022626876831,-0.49040642380714417,-0.5305984616279602,-0.42227768898010254,9.754217147827148,-1.144349217414856,-0.24453194439411163,-2.985851526260376,0.19938845932483673,1.8833719491958618
1785712353077181,403704369,0.5472742319107056,-0.49060559272766113,-0.5303854942321777,-0.4224795699119568,9.761595726013184,-1.1819883584976196,-0.2832396328449249,-2.1307077407836914,0.544711709022522,0.8093549609184265
1785712353078929,403721036,0.5472949743270874,-0.49059686064720154,-0.5301735997200012,-0.42272868752479553,9.758894920349121,-1.158934473991394,-0.29274603724479675,-1.0162094831466675,1.8466564416885376,0.3010580539703369
1785712353130698,403737703,0.5474672317504883,-0.4904427230358124,-0.5299818515777588,-0.42292502522468567,9.708293914794922,-1.143907904624939,-0.2710252106189728,0.2937968671321869,2.5667574405670166,0.3415517508983612
1785712353131145,403754370,0.5476297736167908,-0.49025958776474,-0.5299614071846008,-0.4229525625705719,9.685470581054688,-1.1391900777816772,-0.24832701683044434,1.4838908910751343,1.402058482170105,0.2648545205593109
1785712353137459,403771037,0.5477169156074524,-0.490033894777298,-0.530142605304718,-0.4228743314743042,9.690909385681152,-1.1073391437530518,-0.2405804842710495,2.3613052368164062,0.13507498800754547,-0.3907857835292816
1785712353167770,403787704,0.5478166937828064,-0.4897165596485138,-0.5303488969802856,-0.42285406589508057,9.717521667480469,-1.0562231540679932,-0.23731261491775513,2.609825372695923,0.5477083921432495,-0.9912371039390564
1785712353168775,403804371,0.5479434132575989,-0.4893231987953186,-0.5304856300354004,-0.4229736626148224,9.742788314819336,-1.0027282238006592,-0.20268338918685913,2.275362014770508,1.6001087427139282,-1.4828345775604248
1785712353197170,403821038,0.5479892492294312,-0.489017516374588,-0.5306170582771301,-0.42310264706611633,9.719115257263184,-0.9621817469596863,-0.16902530193328857,1.6234416961669922,1.1007890701293945,-1.4163439273834229
1785712353198730,403837705,0.5479359030723572,-0.4888983964920044,-0.5307357907295227,-0.423160582780838,9.696816444396973,-0.9577059149742126,-0.1731790453195572,0.8091947436332703,0.005237797275185585,-0.7132367491722107
1785712353227182,403854372,0.5477698445320129,-0.4889650046825409,-0.5308305025100708,-0.42318010330200195,9.699031829833984,-0.9964402914047241,-0.17123927175998688,-0.19867770373821259,-0.9852949380874634,-0.1382189244031906
1785712353229003,403871039,0.5476008057594299,-0.48910415172576904,-0.530852198600769,-0.42321068048477173,9.721450805664062,-1.0522037744522095,-0.1599600613117218,-0.73430335521698,-0.8951767086982727,0.3215738832950592
1785712353257943,403887706,0.5474718809127808,-0.489204466342926,-0.5308013558387756,-0.42332544922828674,9.746861457824707,-1.0915589332580566,-0.18381185829639435,-0.9724245071411133,-0.0803726464509964,0.22308020293712616
1785712353262090,403904373,0.5473086833953857,-0.4893401563167572,-0.530835747718811,-0.4233365058898926,9.79692268371582,-1.1071006059646606,-0.22268182039260864,-0.5936768054962158,-0.9780465960502625,0.3560613691806793
1785712353287413,403921040,0.5471660494804382,-0.48939916491508484,-0.530998170375824,-0.4232487976551056,9.822514533996582,-1.1271833181381226,-0.21984432637691498,0.49613720178604126,-1.494078516960144,0.0764475092291832
1785712353317198,403937707,0.5472621917724609,-0.4892125129699707,-0.531064510345459,-0.42325711250305176,9.831960678100586,-1.1077138185501099,-0.23730839788913727,1.5948452949523926,0.7762761116027832,-0.16447195410728455
1785712353318819,403954374,0.5476546883583069,-0.48876920342445374,-0.5309235453605652,-0.42343831062316895,9.783802032470703,-1.0798909664154053,-0.1954052448272705,2.3222718238830566,3.9672598838806152,-0.19232578575611115
1785712353347186,403971041,0.5479551553726196,-0.48833364248275757,-0.5308729410171509,-0.42361584305763245,9.718524932861328,-1.0286904573440552,-0.10834596306085587,2.260941982269287,3.2560083866119385,-0.7218555808067322
1785712353349695,403987708,0.547997772693634,-0.48808470368385315,-0.5310149788856506,-0.42366912961006165,9.70925235748291,-0.9803716540336609,-0.08341694623231888,1.7057609558105469,0.6274534463882446,-0.9709389209747314
1785712353377184,404004375,0.5477877259254456,-0.4881143271923065,-0.5311993956565857,-0.4236757159233093,9.778007507324219,-0.9224270582199097,-0.10283816605806351,0.10163760185241699,-1.4232977628707886,-0.6560308933258057
1785712353379333,404021042,0.5477036237716675,-0.48827672004699707,-0.530937671661377,-0.4239251911640167,9.80398941040039,-0.8815383315086365,-0.2138795107603073,-2.1599061489105225,1.1448684930801392,0.7782483100891113
1785712353407192,404037709,0.5477376580238342,-0.4884760081768036,-0.5304628610610962,-0.42424601316452026,9.78587818145752,-0.9623488783836365,-0.19518788158893585,-2.784791946411133,2.5098586082458496,1.7034685611724854
1785712353408746,404054376,0.5475890636444092,-0.48878398537635803,-0.5302265882492065,-0.42437857389450073,9.763113021850586,-1.1017714738845825,-0.17174802720546722,-2.42518949508667,-0.003496133256703615,1.4754385948181152
1785712353437438,404071043,0.5474290251731873,-0.48898592591285706,-0.5301724672317505,-0.42442017793655396,9.816292762756348,-1.1705626249313354,-0.22396402060985565,-1.2011715173721313,-0.7270164489746094,0.7854710817337036
1785712353467170,404087710,0.5475641489028931,-0.48885539174079895,-0.530045747756958,-0.4245541989803314,9.801713943481445,-1.2097630500793457,-0.226468026638031,0.4935694932937622,1.9026265144348145,0.330480694770813
1785712353469182,404104377,0.5478339195251465,-0.488433301448822,-0.530026912689209,-0.42471566796302795,9.698822021484375,-1.2027631998062134,-0.17398864030838013,2.258944511413574,2.930137872695923,-0.8057371377944946
1785712353504117,404121044,0.5478872656822205,-0.48800018429756165,-0.5303041934967041,-0.4247984290122986,9.698753356933594,-1.0763732194900513,-0.14372216165065765,2.724454641342163,0.793001115322113,-2.1769256591796875
1785712353504574,404137711,0.5477691292762756,-0.4876570701599121,-0.5306554436683655,-0.42490607500076294,9.731310844421387,-0.9271134734153748,-0.1964488923549652,1.9363007545471191,-0.28982049226760864,-2.690767526626587
1785712353527190,404154378,0.547950267791748,-0.48707544803619385,-0.5310249924659729,-0.4248780906200409,9.710077285766602,-0.996148943901062,-0.17725957930088043,4.386783123016357,0.975030779838562,-2.23724365234375
1785712353528823,404171045,0.5482099056243896,-0.4862985908985138,-0.5319206118583679,-0.42431217432022095,9.578829765319824,-1.1529972553253174,-0.1399410218000412,8.884721755981445,-1.952405571937561,-2.456066608428955
1785712353557673,404187712,0.5483033657073975,-0.4852055013179779,-0.5333296060562134,-0.42367392778396606,9.66040325164795,-1.1174733638763428,-0.3478030264377594,11.28400707244873,-3.8147828578948975,-5.541323184967041
1785712353559197,404204379,0.5489261150360107,-0.48328205943107605,-0.5340825915336609,-0.4241170883178711,9.91497802734375,-0.8102414608001709,-0.5124733448028564,10.304035186767578,6.625164985656738,-8.933204650878906
1785712353587411,404221046,0.5503368973731995,-0.48077479004859924,-0.5335617065429688,-0.4257906973361969,10.047425270080566,-0.5503883957862854,-0.11923805624246597,6.892960071563721,20.117910385131836,-9.189290046691895
1785712353636639,404237713,0.5509909987449646,-0.4793260991573334,-0.5328988432884216,-0.4274052381515503,9.972696304321289,-0.5624828338623047,0.33370840549468994,0.1880165934562683,14.584362983703613,-6.827813148498535
1785712353636917,404254380,0.5500355362892151,-0.47961246967315674,-0.5332731008529663,-0.4278472065925598,9.940591812133789,-0.7656326293945312,0.33755847811698914,-4.34639835357666,-4.204811096191406,-4.175087928771973
1785712353647189,404271047,0.5485265254974365,-0.48001229763031006,-0.5347091555595398,-0.4275440573692322,9.994964599609375,-1.0730983018875122,0.01648985967040062,-0.743870198726654,-13.042290687561035,-6.0715203285217285
1785712353648760,404287714,0.5483583211898804,-0.4780908226966858,-0.5361050963401794,-0.42816442251205444,10.066584587097168,-1.09617280960083,-0.13146166503429413,8.923243522644043,1.9091215133666992,-14.015201568603516
1785712353677193,404304381,0.549930214881897,-0.4738985300064087,-0.5364938378334045,-0.43031641840934753,10.23303508758545,-0.7281067967414856,0.1887904405593872,14.594009399414062,23.83910369873047,-19.726802825927734
1785712353678913,404321048,0.5522456169128418,-0.46953848004341125,-0.5356929302215576,-0.433119535446167,10.61481761932373,-0.46589139103889465,0.6365886926651001,11.732004165649414,33.69715118408203,-16.73052215576172
1785712353707494,404337715,0.5545635223388672,-0.4655877947807312,-0.5341778993606567,-0.43628230690956116,10.837726593017578,-0.484759658575058,0.730805516242981,6.7354655265808105,36.35783767700195,-14.274496078491211
1785712353709909,404354382,0.5574225187301636,-0.4609560966491699,-0.5321033000946045,-0.4400756061077118,10.670092582702637,-0.5058839321136475,0.6106971502304077,7.071581840515137,44.538238525390625,-15.764704704284668
1785712353737774,404371049,0.5613332390785217,-0.4551906883716583,-0.5291552543640137,-0.4446371793746948,10.350528717041016,-0.44370710849761963,0.9198846220970154,9.298080444335938,57.597286224365234,-16.904869079589844
1785712353772539,404387716,0.5654474496841431,-0.44893279671669006,-0.5256813168525696,-0.4498763084411621,10.442403793334961,-0.39224788546562195,1.3779388666152954,7.7651190757751465,63.99177169799805,-19.043075561523438
1785712353772970,404404383,0.5693002343177795,-0.4430336058139801,-0.5224809646606445,-0.45456933975219727,10.482504844665527,-0.3675867021083832,1.2984821796417236,8.3849515914917,59.18599319458008,-17.275630950927734
1785712353797597,404421050,0.5730950832366943,-0.4349672794342041,-0.5211036205291748,-0.45914849638938904,10.16279411315918,-0.20721951127052307,0.9374474287033081,22.800521850585938,58.26698684692383,-30.34743881225586
1785712353799415,404437717,0.577839732170105,-0.42184990644454956,-0.5204590559005737,-0.4661193788051605,10.231650352478027,0.4945693016052246,1.1617817878723145,39.29171371459961,81.88172149658203,-57.06122589111328
1785712353827232,404454384,0.583838701248169,-0.4053246080875397,-0.5178484916687012,-0.47610726952552795,10.755520820617676,1.1725045442581177,2.055647373199463,39.37638473510742,113.85765075683594,-71.5184097290039
1785712353829036,404471051,0.5910236239433289,-0.38887232542037964,-0.5128666758537292,-0.4862489402294159,10.796845436096191,1.0323693752288818,3.053800344467163,34.08293533325195,127.78789520263672,-61.37985610961914
1785712353857804,404487718,0.5971851348876953,-0.37418022751808167,-0.5089811682701111,-0.49426528811454773,10.044676780700684,0.8617191910743713,3.1697916984558105,35.35764694213867,108.15105438232422,-52.882911682128906
1785712353859511,404504385,0.6023231744766235,-0.3589363098144531,-0.5076032876968384,-0.5007110834121704,9.730470657348633,0.9369094371795654,2.885503053665161,49.012027740478516,92.1045150756836,-58.29032516479492
1785712353902992,404521052,0.6064392924308777,-0.34239983558654785,-0.5068520903587341,-0.5080312490463257,10.198224067687988,1.2741694450378418,3.0867860317230225,50.9539794921875,92.54985046386719,-71.48357391357422
1785712353917191,404537719,0.6093428730964661,-0.3261539936065674,-0.504741907119751,-0.5172634720802307,10.566729545593262,1.645483374595642,3.293365001678467,35.47977828979492,97.47588348388672,-79.47685241699219
1785712353918971,404554386,0.611350953578949,-0.30949458479881287,-0.5021570324897766,-0.527543842792511,10.44635009765625,1.7168432474136353,3.656369686126709,29.88315773010254,100.18010711669922,-87.4199447631836
1785712353947176,404571053,0.613552451133728,-0.2913603186607361,-0.4996236264705658,-0.5376240611076355,10.190633773803711,2.205012559890747,3.714240074157715,37.3769416809082,105.5570068359375,-91.07492065429688
