host_t_us,sensor_t_us,qw,qx,qy,qz,ax,ay,az,gx,gy,gz
1781547253473911,102663121,-0.36677926778793335,0.0433911457657814,-0.06196671724319458,0.9272273778915405,-0.16112691164016724,-1.2129075527191162,10.086219787597656,6.693669319152832,-3.4775776863098145,2.621915102005005
1781547253503684,102696455,-0.3666302561759949,0.043085914105176926,-0.060105860233306885,0.9274231195449829,0.6757020950317383,-1.6579159498214722,10.133321762084961,5.9400787353515625,-0.35787346959114075,-2.0177814960479736
1781547253534265,102729789,-0.36558398604393005,0.041580501943826675,-0.05397586151957512,0.9282813668251038,0.49404177069664,-1.538670539855957,10.13537883758545,27.259517669677734,-2.702928304672241,-3.7387213706970215
1781547253563888,102763123,-0.36322611570358276,0.03960287943482399,-0.04811184108257294,0.9296149015426636,0.15166231989860535,-1.251809000968933,10.20156192779541,20.293418884277344,-0.27637431025505066,-9.284466743469238
1781547253594256,102813124,-0.3579068183898926,0.037038471549749374,-0.04154152423143387,0.9320975542068481,0.32734793424606323,-1.0348944664001465,10.253555297851562,9.5776948928833,2.0985217094421387,-16.380788803100586
1781547253623188,102846458,-0.35468021035194397,0.035367440432310104,-0.03897940739989281,0.9335051774978638,0.3803569972515106,-0.9730212092399597,10.29828929901123,9.864413261413574,3.2591991424560547,-11.882290840148926
1781547253683915,102879792,-0.3498654365539551,0.03445032238960266,-0.03797842562198639,0.9353958964347839,0.051971450448036194,-0.9780195355415344,10.217190742492676,2.4710404872894287,2.94889760017395,-21.05496597290039
1781547253714273,102913126,-0.34427374601364136,0.03272018954157829,-0.03702265024185181,0.9375685453414917,0.4568237066268921,-0.7646340727806091,10.24425220489502,5.3581647872924805,6.1685261726379395,-18.70513343811035
1781547253743792,102946460,-0.33954012393951416,0.02963445335626602,-0.03652525320649147,0.9394148588180542,0.36947816610336304,-0.7196601033210754,10.201123237609863,6.820422172546387,11.376620292663574,-16.05624008178711
1781547253774112,102963127,-0.3379918038845062,0.02770180068910122,-0.03622731566429138,0.940043568611145,0.3967306613922119,-0.7698135375976562,10.287601470947266,6.647892475128174,12.468921661376953,-10.481073379516602
1781547253803300,102996461,-0.33510807156562805,0.02318604663014412,-0.03482033684849739,0.9412506222724915,-0.2709769606590271,-1.0345966815948486,10.14588737487793,11.76834487915039,16.218265533447266,-11.654004096984863
1781547253833259,103063129,-0.33058255910873413,0.016648154705762863,-0.030817734077572823,0.9431270956993103,-0.01794995367527008,-0.5780970454216003,10.224028587341309,9.160974502563477,2.568596124649048,-4.8164825439453125
1781547253864315,103096463,-0.3308137059211731,0.014811758883297443,-0.028463177382946014,0.943150520324707,0.06345237046480179,-0.5734581351280212,10.158867835998535,10.51799488067627,4.887245178222656,0.9489701390266418
1781547253923573,103113130,-0.3303104341030121,0.01363301370292902,-0.026321815326809883,0.9434069991111755,0.11428141593933105,-0.6366031169891357,10.246992111206055,16.934412002563477,3.0617644786834717,-3.2715134620666504
1781547253954498,103146464,-0.32906538248062134,0.010806693695485592,-0.022646311670541763,0.9439738988876343,-0.1994505524635315,-0.4177810847759247,10.38593578338623,13.781915664672852,3.0919225215911865,-2.6586644649505615
1781547253984593,103179798,-0.33113935589790344,0.009704180993139744,-0.021609338000416756,0.943284809589386,0.1692749261856079,-0.33686813712120056,10.239992141723633,4.787355422973633,4.304005146026611,11.439579010009766
1781547254013306,103213132,-0.3326662480831146,0.007483672816306353,-0.017979128286242485,0.9428437352180481,0.07769317179918289,-0.5902412533760071,10.193971633911133,18.02705192565918,1.513296127319336,1.3552782535552979
1781547254043169,103246466,-0.3319787085056305,0.004483351018279791,-0.013279175385832787,0.9431828856468201,-0.043506063520908356,-0.21583706140518188,10.397527694702148,17.39745330810547,6.202243804931641,-1.5825209617614746
1781547254074147,103296467,-0.3313715159893036,0.0006025530165061355,-0.00878628809005022,0.9434595704078674,0.0037553650327026844,-0.1528041809797287,10.209628105163574,15.485024452209473,5.17086935043335,-1.1832438707351685
1781547254104213,103329801,-0.3305509686470032,-0.0025473095010966063,-0.00470159063115716,0.943773090839386,-0.13732315599918365,-0.07581023871898651,10.298417091369629,16.620620727539062,6.571771144866943,-2.992168664932251
1781547254163338,103363135,-0.32997530698776245,-0.005620914977043867,-0.001367144170217216,0.9439719319343567,-0.09803035855293274,0.13340575993061066,10.56848430633545,14.137420654296875,7.064032554626465,-0.22199824452400208
1781547254193210,103396469,-0.33114269375801086,-0.00538948830217123,-0.001155329984612763,0.9435647130012512,-0.16451969742774963,0.06206566095352173,10.336287498474121,0.793116569519043,-1.4239126443862915,5.126542568206787
1781547254223878,103413136,-0.3317549228668213,-0.005162601824849844,-0.0010107940761372447,0.9433510899543762,-0.16066066920757294,0.06473671644926071,10.320021629333496,0.7645840644836426,-1.6343210935592651,5.024143218994141
1781547254253860,103446470,-0.33286330103874207,-0.005179248284548521,-0.0010679239640012383,0.9429605603218079,-0.1543986052274704,0.05450156703591347,10.292988777160645,0.16632887721061707,0.36284229159355164,4.458236217498779
1781547254283871,103479804,-0.33401721715927124,-0.005015408154577017,-0.000977868097834289,0.9425533413887024,-0.16025757789611816,0.06433414667844772,10.30260181427002,0.36897018551826477,-0.556243896484375,4.68485164642334
1781547254313447,103546472,-0.33553609251976013,-0.005157094914466143,-0.0010628004092723131,0.9420127868652344,-0.14487485587596893,0.04821809008717537,10.290077209472656,0.41166651248931885,-0.061969928443431854,3.284694194793701
1781547254343524,103563139,-0.33676788210868835,-0.003968619741499424,-0.0004921172512695193,0.9415794014930725,-0.18083623051643372,-0.003835153765976429,10.260547637939453,1.2749942541122437,-8.844172477722168,9.551090240478516
1781547254403664,103596473,-0.3388822674751282,0.00233899406157434,0.005224964115768671,0.9408115148544312,-0.3367553949356079,0.0488763302564621,10.12607192993164,21.982423782348633,-47.46567916870117,8.24183177947998
1781547254433744,103629807,-0.3396226465702057,0.0021312907338142395,0.0052499715238809586,0.9405449032783508,0.02343934029340744,0.12400055676698685,10.298962593078613,0.3141525685787201,0.17827719449996948,1.0001119375228882
1781547254463188,103663141,-0.3399571478366852,0.002131227171048522,0.005240680184215307,0.9404240846633911,0.016059910878539085,0.09973800927400589,10.29985237121582,0.23705196380615234,0.12477867305278778,1.8014883995056152
1781547254493202,103696475,-0.33995455503463745,0.002101452322676778,0.00527232838794589,0.940424919128418,0.03402046114206314,0.11805418133735657,10.308356285095215,0.5535352230072021,0.2248602956533432,0.5868189334869385
1781547254523255,103713142,-0.3399592936038971,0.00209822878241539,0.005286164116114378,0.9404231309890747,0.022201094776391983,0.11441359668970108,10.330804824829102,0.4642365574836731,0.15164639055728912,0.5968079566955566
1781547254555188,103779810,-0.340401828289032,0.0020335770677775145,0.005334691610187292,0.9402628540992737,-0.009094254113733768,0.10883501172065735,10.298530578613281,0.4766715466976166,0.11467444896697998,0.7465525269508362
1781547254584565,103813144,-0.34038665890693665,0.0020106006413698196,0.0053597078658640385,0.9402682781219482,0.03304773196578026,0.1187908798456192,10.294023513793945,0.4526468813419342,0.1912052184343338,0.5296130180358887
1781547254643447,103846478,-0.3403889238834381,0.001987881027162075,0.00537055404856801,0.9402674436569214,0.027712030336260796,0.11841895431280136,10.314018249511719,0.3814306855201721,0.2156652957201004,0.5863962769508362
1781547254674753,103879812,-0.3403926193714142,0.0019644680432975292,0.005379446316510439,0.9402661323547363,0.030994988977909088,0.11845114082098007,10.30848217010498,0.5190862417221069,0.26949042081832886,0.5430597066879272
1781547254703685,103896479,-0.34039410948753357,0.0019541599322110415,0.005386608187109232,0.940265417098999,0.022140299901366234,0.12753112614154816,10.332159996032715,0.43736889958381653,0.21238692104816437,0.5735131502151489
1781547254734102,103929813,-0.34039121866226196,0.001956286607310176,0.005360784474760294,0.9402667284011841,0.03407074511051178,0.13145440816879272,10.31148624420166,0.2760344445705414,0.21617759764194489,0.5553025603294373
1781547254763714,103963147,-0.340389221906662,0.0019321312429383397,0.005377504974603653,0.9402673840522766,0.028956551104784012,0.12029288709163666,10.33046817779541,0.45072585344314575,0.24783489108085632,0.5602329969406128
1781547254793793,104029815,-0.35180574655532837,0.0017598666017875075,0.00545889837667346,0.9360556602478027,0.012720282189548016,0.1251671314239502,10.29658031463623,0.34945327043533325,0.1739550679922104,0.5695432424545288
1781547254823544,104046482,-0.351813405752182,0.0017488091252744198,0.0054497080855071545,0.9360529184341431,0.02546617202460766,0.13450831174850464,10.324338912963867,0.33425211906433105,0.2561846077442169,0.6186811327934265
1781547254884543,104079816,-0.35180845856666565,0.001759807695634663,0.005460774060338736,0.9360545873641968,0.020359348505735397,0.12082216143608093,10.309579849243164,0.5216090083122253,0.20652160048484802,0.5345306396484375
1781547254914595,104113150,-0.35180872678756714,0.0017462136456742883,0.005465602967888117,0.9360544681549072,0.021736187860369682,0.12955883145332336,10.307759284973145,0.36303436756134033,0.2027629315853119,0.5361250042915344
1781547254943210,104146484,-0.351797878742218,0.0017441082745790482,0.005469472613185644,0.9360585808753967,0.018045542761683464,0.14103488624095917,10.303110122680664,0.3362371027469635,0.17462098598480225,0.5005170106887817
1781547254973655,104163151,-0.3517965078353882,0.0017389985732734203,0.005463134031742811,0.9360591769218445,0.026578372344374657,0.13161158561706543,10.301233291625977,0.3378507196903229,0.21032507717609406,0.5522545576095581
1781547255004248,104196485,-0.35178956389427185,0.0017408444546163082,0.005479193292558193,0.936061680316925,0.01972278393805027,0.1261507123708725,10.32882308959961,0.43665167689323425,0.09944770485162735,0.5250027179718018
1781547255034174,104263153,-0.3517744839191437,0.001740502193570137,0.005481075961142778,0.9360672831535339,0.020466273650527,0.12917965650558472,10.310481071472168,0.4309016764163971,0.1667322814464569,0.581734836101532
1781547255063328,104296487,-0.35178104043006897,0.0017280469182878733,0.005477273371070623,0.9360649585723877,0.019182775169610977,0.12921909987926483,10.327621459960938,0.3905872404575348,0.1736477017402649,0.6142501831054688
1781547255123778,104313154,-0.3517862856388092,0.001730627496726811,0.005463796202093363,0.9360630512237549,0.007842622697353363,0.1278887540102005,10.314443588256836,0.27332592010498047,0.17784178256988525,0.6010404229164124
1781547255153929,104346488,-0.3517879545688629,0.0017279169987887144,0.00546278478577733,0.9360623955726624,0.016600754112005234,0.11640912294387817,10.308871269226074,0.40627503395080566,0.17421117424964905,0.567916750907898
1781547255184138,104379822,-0.3517861068248749,0.0017390747088938951,0.005470544099807739,0.9360629320144653,0.019533244892954826,0.12431254237890244,10.306471824645996,0.3605307340621948,0.13525427877902985,0.5238373279571533
1781547255213567,104413156,-0.3517775237560272,0.001749556278809905,0.0054728868417441845,0.9360661506652832,0.011454591527581215,0.1181650385260582,10.308084487915039,0.326177716255188,0.10289901494979858,0.5625060796737671
1781547255243294,104446490,-0.3517654538154602,0.001749928342178464,0.005483831278979778,0.9360706210136414,0.022719644010066986,0.12743814289569855,10.294631004333496,0.4275335669517517,0.1977108269929886,0.5112487077713013
1781547255274324,104496491,-0.35177698731422424,0.0017519663088023663,0.0054851798340678215,0.9360663890838623,0.0216965414583683,0.13103218376636505,10.311725616455078,0.360914945602417,0.09752675145864487,0.592837929725647
1781547255303734,104529825,-0.35177499055862427,0.00173285196069628,0.005479677114635706,0.9360671043395996,0.014040189795196056,0.1297304928302765,10.299731254577637,0.3480829894542694,0.22980356216430664,0.593708872795105
1781547255363470,104563159,-0.3517681956291199,0.0017251489916816354,0.005474513862282038,0.936069667339325,0.015234642662107944,0.12366525083780289,10.315895080566406,0.395389586687088,0.16341541707515717,0.5360801815986633
1781547255393908,104596493,-0.3517591059207916,0.001723477616906166,0.0054880306124687195,0.9360731840133667,0.021238788962364197,0.11067280173301697,10.324674606323242,0.39597877860069275,0.1437576860189438,0.5346075296401978
1781547255423429,104613160,-0.35175713896751404,0.0017110125627368689,0.005492812022566795,0.9360737800598145,0.027926944196224213,0.12605790793895721,10.315119743347168,0.42688044905662537,0.22930407524108887,0.5479133129119873
1781547255453237,104646494,-0.35175156593322754,0.0016989809228107333,0.005483705084770918,0.9360759258270264,0.014372541569173336,0.13710801303386688,10.301458358764648,0.3050408661365509,0.24491505324840546,0.5327761769294739
1781547255483296,104679828,-0.35174575448036194,0.001703019835986197,0.005513394717127085,0.9360780119895935,0.01951536349952221,0.1346263289451599,10.330089569091797,0.4991210401058197,0.077766552567482,0.5158845782279968
1781547255514004,104746496,-0.35172927379608154,0.001702196546830237,0.005528921261429787,0.9360840320587158,0.009809856303036213,0.12652996182441711,10.311332702636719,0.3980149030685425,0.2175094336271286,0.5551615953445435
1781547255543586,104763163,-0.351726770401001,0.0016962033696472645,0.0055266693234443665,0.9360849857330322,0.016053305938839912,0.14393506944179535,10.309661865234375,0.36585816740989685,0.2041524201631546,0.5439945459365845
1781547255603770,104796497,-0.3517395555973053,0.00170129316393286,0.005532729439437389,0.9360802173614502,0.011397713795304298,0.14445385336875916,10.311789512634277,0.3794585168361664,0.15439973771572113,0.6257117986679077
1781547255634123,104829831,-0.35174304246902466,0.0016853269189596176,0.005547442473471165,0.9360789060592651,0.003261500969529152,0.12044665962457657,10.310127258300781,0.39227765798568726,0.16852515935897827,0.5629734992980957
1781547255664034,104863165,-0.3517415523529053,0.0016848794184625149,0.005558688193559647,0.9360793232917786,0.02563425339758396,0.1219450905919075,10.301397323608398,0.40911805629730225,0.1449998915195465,0.5320461988449097
1781547255693267,104896499,-0.35174256563186646,0.001683553447946906,0.0055620395578444,0.9360790252685547,0.01420469582080841,0.14290167391300201,10.318702697753906,0.332331120967865,0.18311157822608948,0.5076116323471069
1781547255724903,104913166,-0.35172927379608154,0.0016747433692216873,0.00555811682716012,0.9360839128494263,0.01733078435063362,0.12529627978801727,10.302206039428711,0.36153602600097656,0.2255069762468338,0.4651266038417816
1781547255754486,104979834,-0.35173991322517395,0.001657205168157816,0.005576200317591429,0.9360798597335815,0.00967006478458643,0.12825709581375122,10.29861831665039,0.45796146988868713,0.16847392916679382,0.6053241491317749
1781547255783839,105013168,-0.35174164175987244,0.0016390583477914333,0.005583860911428928,0.936079204082489,0.012012479826807976,0.12414445728063583,10.34197998046875,0.5000559687614441,0.17925690114498138,0.5572106838226318
1781547255843346,105046502,-0.3517439067363739,0.0016318910056725144,0.005576037336140871,0.9360784888267517,0.005121128633618355,0.12216681987047195,10.325736999511719,0.3534488379955292,0.1861082762479782,0.5461716055870056
1781547255874245,105063169,-0.3517456352710724,0.001630523125641048,0.005585409700870514,0.9360777735710144,0.02434360235929489,0.12408734858036041,10.319125175476074,0.42953139543533325,0.14547373354434967,0.5747938752174377
1781547255904327,105096503,-0.3517550826072693,0.001611238345503807,0.005604386329650879,0.9360740780830383,0.024657949805259705,0.1161838248372078,10.316710472106934,0.5012340545654297,0.19963176548480988,0.5751267671585083
1781547255934582,105129837,-0.35175007581710815,0.0015937106218189,0.005613619927316904,0.9360759258270264,0.01252745371311903,0.1274596005678177,10.298243522644043,0.4167249798774719,0.18571126461029053,0.5556098818778992
1781547255963851,105163171,-0.35175278782844543,0.0015847684117034078,0.005623434204608202,0.93607497215271,0.02060643769800663,0.14020539820194244,10.339706420898438,0.3884613811969757,0.22395102679729462,0.5844370126724243
1781547255993247,105213172,-0.3517482578754425,0.0015612781280651689,0.005617003887891769,0.9360765814781189,0.024893978610634804,0.12309662997722626,10.3118896484375,0.3152346909046173,0.2920680046081543,0.5419070720672607
1781547256023774,105246506,-0.35175105929374695,0.0015709075378254056,0.005607120227068663,0.936075747013092,0.0207634586840868,0.12080070376396179,10.320358276367188,0.33549436926841736,0.15863865613937378,0.5580174326896667
1781547256083726,105279840,-0.3517467975616455,0.0015792746562510729,0.005603765603154898,0.9360772371292114,0.011304096318781376,0.12926195561885834,10.298572540283203,0.38971641659736633,0.12678925693035126,0.5251179933547974
1781547256114073,105313174,-0.3517443537712097,0.0015802198322489858,0.005607606377452612,0.9360782504081726,0.009090382605791092,0.13198700547218323,10.304051399230957,0.41777512431144714,0.12466339766979218,0.5586449503898621
1781547256143242,105346508,-0.35173752903938293,0.0015906927874311805,0.005604078061878681,0.9360806941986084,0.01275990717113018,0.12367240339517593,10.312726974487305,0.39135560393333435,0.09757797420024872,0.5289982557296753
1781547256173545,105363175,-0.35173434019088745,0.001595673500560224,0.005618805531412363,0.9360818266868591,0.011258249171078205,0.129920095205307,10.304423332214355,0.4485360085964203,0.09068816155195236,0.5390128493309021
1781547256203513,105396509,-0.35172873735427856,0.0016030695987865329,0.0056210835464298725,0.936083972454071,0.00825746264308691,0.12232416868209839,10.2908296585083,0.34470847249031067,0.10633111745119095,0.550288736820221
1781547256233828,105463177,-0.35172662138938904,0.0015941278543323278,0.00564283411949873,0.9360845685005188,0.0188358835875988,0.13589587807655334,10.31030559539795,0.3815971910953522,0.12894073128700256,0.6053113341331482
1781547256263603,105496511,-0.35172951221466064,0.0015862009022384882,0.005642528645694256,0.9360834956169128,0.03154214844107628,0.1342257857322693,10.32281494140625,0.3182826042175293,0.13791798055171967,0.5924792885780334
1781547256325627,105529845,-0.3517271876335144,0.0015790568431839347,0.0056458343751728535,0.9360843896865845,0.018177861347794533,0.13117527961730957,10.295127868652344,0.4310552775859833,0.18481482565402985,0.5356832146644592
1781547256353958,105546512,-0.3517124652862549,0.0015795527724549174,0.005655811168253422,0.9360899329185486,0.012463082559406757,0.13165807723999023,10.32292652130127,0.42853251099586487,0.13015732169151306,0.4549008011817932
1781547256383842,105579846,-0.3517078757286072,0.0015814669895917177,0.005648449994623661,0.9360916614532471,0.028534557670354843,0.1277528554201126,10.310076713562012,0.3639757037162781,0.18746575713157654,0.5507563352584839
1781547256413478,105613180,-0.3517143428325653,0.0015911281807348132,0.005656486842781305,0.9360891580581665,0.007960270158946514,0.1155543178319931,10.317930221557617,0.42407581210136414,0.13849425315856934,0.6005344390869141
1781547256443237,105646514,-0.3517150282859802,0.001601140364073217,0.005678753834217787,0.9360886812210083,0.01696910336613655,0.1216554194688797,10.326777458190918,0.44533440470695496,0.12474024295806885,0.5585424900054932
1781547256473465,105696515,-0.3516957461833954,0.0015756958164274693,0.005698271561414003,0.9360958933830261,0.0069703697226941586,0.13133275508880615,10.297024726867676,0.44403454661369324,0.1717843860387802,0.533461332321167
1781547256504534,105729849,-0.3517010509967804,0.0015645376406610012,0.005691752303391695,0.9360939860343933,0.014873445965349674,0.12185210734605789,10.313041687011719,0.3099328875541687,0.19321580231189728,0.5919542908668518
1781547256563909,105763183,-0.3517082929611206,0.0015475591644644737,0.005693092010915279,0.9360913038253784,0.033076342195272446,0.125996932387352,10.300618171691895,0.37922802567481995,0.14690804481506348,0.624495267868042
1781547256593595,105796517,-0.3516922891139984,0.0015478398418053985,0.005704139359295368,0.9360972046852112,0.02873840183019638,0.1316688060760498,10.301579475402832,0.4227055311203003,0.1685379594564438,0.5303045511245728
1781547256624240,105813184,-0.3517003059387207,0.0015495981788262725,0.005705513525754213,0.9360941648483276,0.02275540679693222,0.12291782349348068,10.30088996887207,0.37086546421051025,0.14302769303321838,0.6220875382423401
1781547256654220,105846518,-0.35170167684555054,0.0015370768960565329,0.005722451489418745,0.9360936284065247,0.01680063083767891,0.13609246909618378,10.318702697753906,0.4520833492279053,0.16011136770248413,0.597845196723938
1781547256684067,105879852,-0.3516935110092163,0.0015419690171256661,0.0057162633165717125,0.9360966682434082,0.011650838889181614,0.1327986717224121,10.324077606201172,0.29323339462280273,0.1524403691291809,0.5251820087432861
1781547256714101,105946520,-0.3516736626625061,0.0015526703791692853,0.005716035608202219,0.9361041188240051,0.01285288855433464,0.11882664263248444,10.336812973022461,0.3444075286388397,0.14533285796642303,0.551511824131012
1781547256761690,105963187,-0.35166552662849426,0.0015457671834155917,0.00571540929377079,0.9361071586608887,0.011118154041469097,0.13033472001552582,10.30502700805664,0.37862613797187805,0.20266686379909515,0.5027580261230469
1781547256804397,105996521,-0.351664274930954,0.0015389989130198956,0.005711123812943697,0.9361076951026917,0.021260248497128487,0.1322837769985199,10.323623657226562,0.3338935077190399,0.14877775311470032,0.636161744594574
1781547256833494,106029855,-0.3516644835472107,0.001524891471490264,0.005717235617339611,0.9361076354980469,0.02144976705312729,0.11944160610437393,10.294620513916016,0.38504207134246826,0.20612460374832153,0.5841808319091797
1781547256863407,106063189,-0.35165613889694214,0.0015130056999623775,0.0057133459486067295,0.93611079454422,0.009205157868564129,0.12038228660821915,10.307269096374512,0.3678688406944275,0.19403541088104248,0.5397940874099731
1781547256893283,106096523,-0.35165995359420776,0.0015126842772588134,0.0057181608863174915,0.9361093044281006,0.012977723963558674,0.1328202784061432,10.314192771911621,0.39570334553718567,0.09999196976423264,0.5822662711143494
1781547256923395,106113190,-0.3516581058502197,0.0015123855555430055,0.0057261292822659016,0.9361100196838379,0.029017014428973198,0.1290867030620575,10.301955223083496,0.4182617962360382,0.13932667672634125,0.5493218898773193
1781547256953702,106179858,-0.3516424894332886,0.0015111988177523017,0.0057181972078979015,0.9361158609390259,0.020416567102074623,0.1211368665099144,10.295697212219238,0.2694007456302643,0.16360750794410706,0.560681164264679
1781547256984540,106213192,-0.35163015127182007,0.001509712659753859,0.0057365139946341515,0.9361204504966736,0.024722320958971977,0.12255662679672241,10.318737983703613,0.4446556568145752,0.1335638165473938,0.5141044855117798
1781547257043999,106246526,-0.35162705183029175,0.001516043790616095,0.0057309833355247974,0.9361215233802795,0.025737963616847992,0.11845114082098007,10.324545860290527,0.35964712500572205,0.14772765338420868,0.5144630670547485
1781547257073681,106263193,-0.3516260087490082,0.0015148778911679983,0.005719679407775402,0.9361220002174377,0.02734368108212948,0.13083554804325104,10.311789512634277,0.29651182889938354,0.19125644862651825,0.5549055337905884
1781547257104920,106296527,-0.35163643956184387,0.0015123874181881547,0.005713501013815403,0.9361183047294617,0.018038390204310417,0.12362591177225113,10.306596755981445,0.3338167071342468,0.10679855942726135,0.58653724193573
1781547257134165,106329861,-0.3516225218772888,0.0015045772306621075,0.005712862126529217,0.9361234307289124,0.004413573537021875,0.12201687693595886,10.306951522827148,0.37098070979118347,0.19208882749080658,0.4985063374042511
1781547257164800,106363195,-0.35162684321403503,0.0014970102347433567,0.005716098938137293,0.9361218214035034,0.03803296387195587,0.13797007501125336,10.323945045471191,0.3545117676258087,0.1651826947927475,0.596897542476654
1781547257193303,106413196,-0.3516179323196411,0.0014949428150430322,0.005714824888855219,0.9361251592636108,0.015148813836276531,0.12297146022319794,10.317490577697754,0.4348715543746948,0.1477532535791397,0.5320590138435364
1781547257226006,106446530,-0.351612389087677,0.001499379868619144,0.0057189553044736385,0.9361273050308228,0.015510011464357376,0.122173972427845,10.312755584716797,0.4166865944862366,0.14165744185447693,0.5089691877365112
1781547257283750,106479864,-0.35161101818084717,0.0014767436077818274,0.005740869324654341,0.9361275434494019,0.03253275901079178,0.12477029860019684,10.313334465026855,0.4243832528591156,0.2155885100364685,0.5627942681312561
1781547257314182,106513198,-0.35161882638931274,0.0014795478200539947,0.00572974793612957,0.9361246824264526,0.02820943295955658,0.12250316888093948,10.302384376525879,0.35659924149513245,0.2320958822965622,0.6070658564567566
1781547257343432,106546532,-0.351622074842453,0.0014822883531451225,0.005728064104914665,0.9361235499382019,0.014483639970421791,0.12208456546068192,10.302924156188965,0.35361534357070923,0.15445098280906677,0.5616929531097412
1781547257374257,106563199,-0.3516228497028351,0.0014718211023136973,0.0057334015145897865,0.936123251914978,0.009741588495671749,0.1232718676328659,10.330464363098145,0.4264834523200989,0.2104787528514862,0.5681472420692444
1781547257404212,106596533,-0.3516181707382202,0.0014657826395705342,0.005745721515268087,0.9361249804496765,0.023535020649433136,0.12593971192836761,10.305224418640137,0.3913171887397766,0.14943088591098785,0.5721300840377808
1781547257433609,106663201,-0.35160788893699646,0.001450475538149476,0.005747104994952679,0.9361287951469421,0.01794898509979248,0.13172602653503418,10.2891845703125,0.4014982283115387,0.11633928120136261,0.5320590138435364
1781547257463768,106696535,-0.35161086916923523,0.0014436021447181702,0.005763355642557144,0.9361276626586914,0.013528792187571526,0.1281927227973938,10.321502685546875,0.35672727227211,0.1748771071434021,0.5849876403808594
1781547257523919,106713202,-0.35161590576171875,0.0014457118231803179,0.005768902599811554,0.9361257553100586,0.015441719442605972,0.11145956814289093,10.290010452270508,0.39766913652420044,0.12894073128700256,0.6003808379173279
1781547257554299,106746536,-0.3516141474246979,0.0014466451248154044,0.005769200623035431,0.9361263513565063,0.018471110612154007,0.13367505371570587,10.307891845703125,0.38287782669067383,0.12114166468381882,0.5163328051567078
1781547257584327,106779870,-0.35160496830940247,0.0014349337434396148,0.005787922069430351,0.9361295700073242,0.015917697921395302,0.13577786087989807,10.263189315795898,0.39022865891456604,0.14553776383399963,0.5359777212142944
1781547257613893,106813204,-0.3515980541706085,0.0014487692387774587,0.005812294781208038,0.9361320734024048,0.03948525711894035,0.13940058648586273,10.326935768127441,0.4556819498538971,0.032675400376319885,0.5321486592292786
1781547257643702,106846538,-0.3515976369380951,0.0014287142548710108,0.005815922282636166,0.9361322522163391,0.018717868253588676,0.12694105505943298,10.298665046691895,0.3852854371070862,0.20266687870025635,0.5694791078567505
1781547257673661,106896539,-0.35158786177635193,0.0014287373051047325,0.005819826852530241,0.9361358284950256,0.013614621013402939,0.1183188185095787,10.291162490844727,0.2994444668292999,0.15493759512901306,0.5417149066925049
1781547257704304,106929873,-0.35158541798591614,0.001416467479430139,0.005844763480126858,0.9361366629600525,0.026967763900756836,0.13466909527778625,10.297849655151367,0.46298161149024963,0.16360752284526825,0.6258143186569214
1781547257764220,106963207,-0.3515816330909729,0.0014185317559167743,0.0058581936173141,0.9361380338668823,0.0087474025785923,0.13810597360134125,10.287232398986816,0.3652050793170929,0.1976083666086197,0.5343641042709351
1781547257793353,106996541,-0.351576566696167,0.0014319665497168899,0.005872955545783043,0.9361398220062256,0.025519508868455887,0.11898035556077957,10.295693397521973,0.39736178517341614,0.11566054075956345,0.5356447100639343
1781547257823682,107029875,-0.3515607416629791,0.0014203442260622978,0.0058652982115745544,0.9361457824707031,0.02466510236263275,0.1551680564880371,10.288111686706543,0.3555362820625305,0.2399589866399765,0.5028733611106873
1781547257853336,107046542,-0.3515562117099762,0.0014297176385298371,0.005863933824002743,0.9361475706100464,0.023042013868689537,0.14600951969623566,10.31985092163086,0.33577612042427063,0.09815426915884018,0.5299844145774841
1781547257884083,107079876,-0.3515475392341614,0.0014051609905436635,0.00588118564337492,0.9361506104469299,0.03395966440439224,0.10610249638557434,10.321112632751465,0.3926362693309784,0.22334913909435272,0.5044869184494019
1781547257914645,107146544,-0.3515540063381195,0.0014046435244381428,0.005899697542190552,0.9361482262611389,0.012337915599346161,0.10305199027061462,10.308396339416504,0.3704044222831726,0.11294558644294739,0.6593796610832214
1781547257944028,107163211,-0.3515511155128479,0.0013946754625067115,0.005899527575820684,0.9361492395401001,0.004838608670979738,0.11851908266544342,10.299652099609375,0.39044642448425293,0.21964812278747559,0.541343629360199
1781547258004084,107196545,-0.3515482246875763,0.0013999872608110309,0.005903802812099457,0.9361502528190613,0.027851782739162445,0.1495964229106903,10.307230949401855,0.3580591380596161,0.13607387244701385,0.5396276116371155
1781547258034527,107229879,-0.35155314207077026,0.0013973928289487958,0.005899782292544842,0.9361485242843628,0.035794589668512344,0.13171899318695068,10.309350967407227,0.38169965147972107,0.1692551225423813,0.6114839911460876
1781547258064149,107263213,-0.3520980179309845,0.0012476530391722918,0.005919516086578369,0.9359438419342041,0.01843177154660225,0.1372154951095581,10.2984037399292,0.4185691475868225,0.1368294507265091,0.5211352109909058
1781547258093186,107296547,-0.3520866334438324,0.001229005865752697,0.005932958796620369,0.9359480738639832,0.014769735746085644,0.12056825309991837,10.321245193481445,0.45747482776641846,0.1885543167591095,0.49203920364379883
1781547258123548,107313214,-0.3520866632461548,0.0012213976588100195,0.005936309229582548,0.9359479546546936,0.013064215891063213,0.12084734439849854,10.325830459594727,0.4081191420555115,0.19531603157520294,0.5595926642417908
1781547258153497,107379882,-0.3520883321762085,0.001203769352287054,0.005918785929679871,0.9359474778175354,0.025036754086613655,0.12376172095537186,10.300256729125977,0.3197297155857086,0.14168305695056915,0.5974354147911072
1781547258184220,107413216,-0.3520925045013428,0.0011990206548944116,0.00593941006809473,0.9359457492828369,0.029142143204808235,0.12869690358638763,10.278706550598145,0.4483438730239868,0.12004031240940094,0.5732826590538025
1781547258243464,107446550,-0.352091908454895,0.001202523009851575,0.005946601275354624,0.9359459280967712,0.028767012059688568,0.13423293828964233,10.308431625366211,0.40906044840812683,0.13304518163204193,0.5638763904571533
1781547258274627,107463217,-0.35209423303604126,0.0011995162349194288,0.005940256640315056,0.9359451532363892,0.015860479325056076,0.13647879660129547,10.298107147216797,0.3348475992679596,0.18913696706295013,0.5767723321914673
1781547258304395,107496551,-0.3520802855491638,0.0012015167158097029,0.005940086208283901,0.9359503984451294,0.021839898079633713,0.1267443597316742,10.327292442321777,0.36395007371902466,0.1891562044620514,0.509968101978302
1781547258334547,107529885,-0.35209405422210693,0.0012046591145917773,0.0059377397410571575,0.9359452128410339,0.020871076732873917,0.12621884047985077,10.300138473510742,0.37096789479255676,0.21712525188922882,0.623406708240509
1781547258366112,107563219,-0.35209429264068604,0.001206796383485198,0.005949881859123707,0.9359450936317444,0.028291713446378708,0.1254391372203827,10.326399803161621,0.3894731402397156,0.12941457331180573,0.597486674785614
1781547258393349,107613220,-0.3520890176296234,0.0012098599690943956,0.005961253773421049,0.9359469413757324,0.013711178675293922,0.11325491219758987,10.312447547912598,0.4363187253475189,0.11772236973047256,0.5526387691497803
1781547258423355,107646554,-0.35208356380462646,0.0012142719933763146,0.005940163042396307,0.9359491467475891,0.01926860399544239,0.13455480337142944,10.305624961853027,0.2704636752605438,0.1985176056623459,0.5458514094352722
1781547258483517,107679888,-0.35208919644355774,0.001211207127198577,0.005952522624284029,0.9359469413757324,0.025480153039097786,0.13287384808063507,10.307047843933105,0.4019336700439453,0.20111732184886932,0.558747410774231
1781547258513984,107713222,-0.3520991802215576,0.0011903020786121488,0.005950686521828175,0.9359432458877563,0.021553801372647285,0.12063977867364883,10.30444049835205,0.41235804557800293,0.2371928095817566,0.6225486397743225
1781547258543764,107746556,-0.352099746465683,0.0012028730707243085,0.005959204863756895,0.9359430074691772,0.0217540692538023,0.12566077709197998,10.336858749389648,0.3480829894542694,0.08881843835115433,0.6053113341331482
1781547258573834,107763223,-0.3520990014076233,0.0011869248701259494,0.005964857991784811,0.9359432458877563,0.023606544360518456,0.12505638599395752,10.317010879516602,0.4438937306404114,0.2430645078420639,0.5547838807106018
1781547258604303,107796557,-0.35210445523262024,0.0011563163716346025,0.0059735896065831184,0.9359411597251892,0.023968156427145004,0.12456662952899933,10.311497688293457,0.48210784792900085,0.21494178473949432,0.5931772589683533
1781547258633827,107863225,-0.35211995244026184,0.0011731715640053153,0.005972978193312883,0.9359353184700012,0.012298576533794403,0.11954188346862793,10.319024085998535,0.3688676655292511,0.1274551898241043,0.5184842348098755
1781547258663832,107896559,-0.35213255882263184,0.001164635643362999,0.0059867431409657,0.9359304308891296,0.02022702805697918,0.13735496997833252,10.31855583190918,0.43991729617118835,0.19540567696094513,0.5650737881660461
1781547258723495,107913226,-0.35213539004325867,0.0011575216194614768,0.005990293808281422,0.9359294176101685,0.016611482948064804,0.13457626104354858,10.298078536987305,0.40933576226234436,0.19132046401500702,0.580735981464386
1781547258753702,107946560,-0.35213497281074524,0.001148106879554689,0.005991803482174873,0.9359295964241028,0.014429996721446514,0.12295358628034592,10.33714485168457,0.36168333888053894,0.19509832561016083,0.5260527729988098
1781547258784184,107979894,-0.35213950276374817,0.0011369368294253945,0.005981429945677519,0.9359279274940491,0.022547680884599686,0.13138259947299957,10.290425300598145,0.38502925634384155,0.16995945572853088,0.549078643321991
1781547258814964,108013228,-0.35213375091552734,0.001138879219070077,0.005964897572994232,0.9359301924705505,0.018156403675675392,0.12081858515739441,10.324563980102539,0.2888920307159424,0.14749711751937866,0.5382188558578491
1781547258843306,108046562,-0.3521324396133423,0.0011312415590509772,0.0059630610048770905,0.935930609703064,0.027379781007766724,0.13402563333511353,10.312348365783691,0.4225519001483917,0.15384908020496368,0.5518448352813721
1781547258873848,108096563,-0.35212984681129456,0.0011172580998390913,0.005977603141218424,0.9359316229820251,0.01877508871257305,0.1307211071252823,10.309880256652832,0.41342735290527344,0.1867549866437912,0.5709838271141052
1781547258904666,108129897,-0.3521465063095093,0.0011072515044361353,0.005988656543195248,0.935925304889679,0.015917697921395302,0.11165992170572281,10.307409286499023,0.42298728227615356,0.192844420671463,0.6261473298072815
1781547258964471,108163231,-0.35215815901756287,0.0011211988748982549,0.005978282541036606,0.9359209537506104,0.02180413529276848,0.1263187974691391,10.312962532043457,0.3055402636528015,0.100728340446949,0.6030445694923401
1781547258993561,108196565,-0.3521499037742615,0.0011154384119436145,0.005961082875728607,0.9359241127967834,0.00030040141427889466,0.1211368665099144,10.300435066223145,0.28835415840148926,0.20416522026062012,0.4999534785747528
1781547259023678,108213232,-0.35214874148368835,0.0011173769598826766,0.005962086841464043,0.9359245896339417,0.01904359832406044,0.1228964701294899,10.295825958251953,0.3715313971042633,0.13885283470153809,0.5497445464134216
1781547259054488,108246566,-0.3521464765071869,0.0011240761959925294,0.00597023218870163,0.9359254837036133,0.02363191731274128,0.11996041238307953,10.312212944030762,0.4182233512401581,0.14783009886741638,0.5579149127006531
1781547259084450,108279900,-0.3521396815776825,0.0011284265201538801,0.005989935714751482,0.9359278678894043,0.011768940836191177,0.13442601263523102,10.312941551208496,0.4578718841075897,0.09636137634515762,0.5421375632286072
1781547259114609,108346568,-0.3521290719509125,0.001133235520683229,0.005991759244352579,0.9359317421913147,0.014226152561604977,0.12863975763320923,10.304634094238281,0.32179149985313416,0.11017942428588867,0.614314079284668
1781547259143617,108363235,-0.3521233797073364,0.001138220657594502,0.005994799546897411,0.9359338879585266,0.02283765934407711,0.12940149009227753,10.32580852508545,0.377460777759552,0.11405976116657257,0.5191246271133423
1781547259204352,108396569,-0.35211390256881714,0.001134991180151701,0.006001243367791176,0.9359374642372131,-6.079552258597687e-05,0.12738092243671417,10.312265396118164,0.3958826959133148,0.14998796582221985,0.5393778085708618
1781547259233889,108429903,-0.3521121144294739,0.0011245273053646088,0.0059992303140461445,0.9359380602836609,0.011164617724716663,0.1289793699979782,10.295822143554688,0.3764106035232544,0.1866077333688736,0.556506335735321
1781547259263599,108463237,-0.35210224986076355,0.001104921568185091,0.006002879701554775,0.9359418749809265,0.01723731867969036,0.13259145617485046,10.333958625793457,0.4090796411037445,0.21595989167690277,0.46746382117271423
1781547259293355,108496571,-0.3520963191986084,0.0010859884787350893,0.006011637393385172,0.9359440803527832,0.023688796907663345,0.1380237191915512,10.310184478759766,0.44817742705345154,0.21507622301578522,0.5225439071655273
1781547259324310,108529905,-0.35209453105926514,0.0010754588292911649,0.006022213026881218,0.935944676399231,0.009330324828624725,0.13054944574832916,10.312387466430664,0.3977012038230896,0.16385723650455475,0.5487136840820312
1781547259354423,108579906,-0.3520979583263397,0.0010438536992296576,0.0060327486135065556,0.9359433054924011,0.01945456676185131,0.11757854372262955,10.276256561279297,0.38085445761680603,0.20237234234809875,0.5618593692779541
1781547259383972,108613240,-0.3520987927913666,0.0010301119182258844,0.006030983291566372,0.935943067073822,0.010331952013075352,0.1262044608592987,10.297911643981934,0.35878267884254456,0.15007759630680084,0.5588306784629822
1781547259443960,108646574,-0.35209986567497253,0.0010282755829393864,0.0060121845453977585,0.9359427690505981,0.022340567782521248,0.13251993060112,10.303181648254395,0.2833341062068939,0.17592723667621613,0.533314049243927
1781547259474454,108663241,-0.3521038293838501,0.0010249551851302385,0.006020738277584314,0.935941219329834,0.010953555814921856,0.12106882780790329,10.30292797088623,0.43368056416511536,0.15433570742607117,0.587395191192627
1781547259503927,108696575,-0.35210442543029785,0.0010362938046455383,0.006009290460497141,0.9359411597251892,0.030437100678682327,0.13058163225650787,10.334466934204102,0.34145569801330566,0.1180105060338974,0.5753252506256104
1781547259533485,108729909,-0.3521045446395874,0.001018987037241459,0.006007710937410593,0.9359410405158997,0.011175647377967834,0.12889008224010468,10.297931671142578,0.35280856490135193,0.1965198665857315,0.6009060144424438
1781547259563851,108763243,-0.35210102796554565,0.0010063789086416364,0.0060231625102460384,0.9359423518180847,0.018342366442084312,0.12662634253501892,10.298518180847168,0.39826464653015137,0.18106897175312042,0.5503399968147278
1781547259593878,108813244,-0.3520852029323578,0.0009891648078337312,0.0059989807195961475,0.9359483122825623,0.020194843411445618,0.13467282056808472,10.300077438354492,0.3155291974544525,0.20247478783130646,0.47430238127708435
1781547259624059,108846578,-0.3521038293838501,0.0009874813258647919,0.006014988292008638,0.9359412789344788,0.009097871370613575,0.12764199078083038,10.304862976074219,0.36024898290634155,0.16321052610874176,0.6270307898521423
1781547259685170,108879912,-0.3520982265472412,0.0009780413238331676,0.006007653661072254,0.9359434843063354,0.015510011464357376,0.12740953266620636,10.291727066040039,0.3698410093784332,0.22368212044239044,0.5331987738609314
1781547259713912,108913246,-0.3520749509334564,0.0009527805377729237,0.006012804340571165,0.9359522461891174,0.025079941377043724,0.11130230128765106,10.313248634338379,0.35691937804222107,0.22451451420783997,0.4484207034111023
1781547259743447,108946580,-0.3520641326904297,0.0009567414526827633,0.006002283189445734,0.9359564185142517,0.019161319360136986,0.12611137330532074,10.306668281555176,0.3202163875102997,0.2025132179260254,0.5504617691040039
1781547259774164,108963247,-0.3520650267601013,0.0009607673273421824,0.006001394707709551,0.9359560608863831,0.02686118148267269,0.12437701225280762,10.296416282653809,0.3556003272533417,0.12967070937156677,0.5635242462158203
1781547259803604,108996581,-0.35208433866500854,0.0009468813659623265,0.005995424930006266,0.9359488487243652,0.024360839277505875,0.1322050392627716,10.3053560256958,0.32168906927108765,0.22309303283691406,0.6156333088874817
1781547259833952,109063249,-0.35207033157348633,0.0009066155762411654,0.005993070546537638,0.9359540939331055,0.005854251328855753,0.11539348214864731,10.319067001342773,0.3744256794452667,0.2419055551290512,0.6080647110939026
1781547259864046,109096583,-0.35206615924835205,0.0009118622983805835,0.005990185309201479,0.9359557628631592,0.006670150440186262,0.13593891263008118,10.295342445373535,0.3665369153022766,0.0976676270365715,0.4973025619983673
1781547259923412,109113250,-0.35206589102745056,0.0009089202503673732,0.005992399528622627,0.935955822467804,0.011061209253966808,0.12891511619091034,10.32678508758545,0.3926938474178314,0.16691794991493225,0.5524018406867981
1781547259955124,109146584,-0.3520723283290863,0.0009059595176950097,0.005995104555040598,0.9359533786773682,0.018235081806778908,0.13395757973194122,10.300310134887695,0.34740427136421204,0.14688241481781006,0.5409978628158569
1781547259983769,109179918,-0.3520567715167999,0.000909778056666255,0.006011377088725567,0.9359591603279114,0.028591778129339218,0.12702688574790955,10.313474655151367,0.3899853825569153,0.1125614121556282,0.5343513488769531
1781547260013432,109213252,-0.3520566523075104,0.0008997092954814434,0.006006649695336819,0.9359591603279114,0.02098160795867443,0.1261972039937973,10.319432258605957,0.40382900834083557,0.1932414174079895,0.580146849155426
1781547260043365,109246586,-0.3520503342151642,0.0009133868734352291,0.0060098920948803425,0.9359614253044128,0.01687612198293209,0.12248510122299194,10.304487228393555,0.35800790786743164,0.08314522355794907,0.5848851799964905
1781547260074040,109296587,-0.3521571755409241,0.0008767163380980492,0.006086739711463451,0.9359208345413208,0.01839636079967022,0.1272844821214676,10.304319381713867,0.3773582875728607,0.14674155414104462,0.6445755958557129
1781547260103421,109329921,-0.35214072465896606,0.0008714987197890878,0.006087886169552803,0.935927152633667,0.008414816111326218,0.12283556908369064,10.308871269226074,0.3497093617916107,0.15958631038665771,0.45214736461639404
1781547260163771,109363255,-0.35213416814804077,0.0008663461194373667,0.006096085999161005,0.9359294772148132,0.028233787044882774,0.13104648888111115,10.310015678405762,0.4712800681591034,0.11695396900177002,0.5418045520782471
1781547260193591,109396589,-0.35213252902030945,0.0008516147499904037,0.0061210813000798225,0.9359300136566162,0.013693297281861305,0.11187449097633362,10.295385360717773,0.48687824606895447,0.18530146777629852,0.5434310436248779
1781547260225642,109413256,-0.3521345555782318,0.0008463560952804983,0.006115230731666088,0.9359292387962341,0.0283450186252594,0.1336321383714676,10.32607364654541,0.3467255234718323,0.20116853713989258,0.5588755011558533
1781547260256006,109446590,-0.3521333634853363,0.0008346340036951005,0.006112827453762293,0.9359296560287476,0.005668288562446833,0.13185475766658783,10.328262329101562,0.33361178636550903,0.2377946972846985,0.5770861506462097
1781547260284500,109479924,-0.3521377742290497,0.0008391713490709662,0.0061294157058000565,0.9359279870986938,0.020906507968902588,0.11499294638633728,10.324860572814941,0.4693078398704529,0.08587297797203064,0.5224030017852783
1781547260314518,109546592,-0.352164626121521,0.0008290756959468126,0.006147401873022318,0.9359176754951477,0.030973531305789948,0.12033937871456146,10.304869651794434,0.49775078892707825,0.09496548026800156,0.5821830034255981
1781547260343507,109563259,-0.3521667718887329,0.0008327948162332177,0.006154786329716444,0.9359168410301208,0.032747332006692886,0.12223118543624878,10.305710792541504,0.4106356203556061,0.1115817204117775,0.5798331499099731
1781547260403732,109596593,-0.3521726131439209,0.0008193821413442492,0.006154167000204325,0.9359146952629089,0.024207348003983498,0.13047076761722565,10.309758186340332,0.37552696466445923,0.19817183911800385,0.5922871828079224
1781547260434583,109629927,-0.35217127203941345,0.0008169643115252256,0.006138358730822802,0.9359152913093567,0.01803123764693737,0.13266655802726746,10.305288314819336,0.3531478941440582,0.184001624584198,0.5827144980430603
1781547260464609,109663261,-0.35217368602752686,0.0007894384325481951,0.00612205034121871,0.9359145760536194,0.023292124271392822,0.1261509209871292,10.318680763244629,0.3384654223918915,0.2613711655139923,0.5886630415916443
1781547260494319,109696595,-0.3521937131881714,0.0007721236906945705,0.006124993786215782,0.9359070062637329,0.020520277321338654,0.11764649301767349,10.306082725524902,0.3458611071109772,0.1921464502811432,0.5849044322967529
1781547260523795,109713262,-0.3521931767463684,0.0007640669937245548,0.006123440805822611,0.9359071850776672,0.0177916307002306,0.12537109851837158,10.317880630493164,0.3819557726383209,0.20910847187042236,0.5715921521186829
1781547260554220,109779930,-0.3521970808506012,0.000750249600969255,0.006133468821644783,0.9359056949615479,0.0256020687520504,0.12446631491184235,10.316996574401855,0.4199138581752777,0.18636442720890045,0.5700939893722534
1781547260583704,109813264,-0.352187842130661,0.0007338549476116896,0.006139842327684164,0.9359090924263,0.02303106151521206,0.12512445449829102,10.305886268615723,0.39615803956985474,0.1702924370765686,0.4966238737106323
1781547260643391,109846598,-0.352186381816864,0.000724836892914027,0.006135899107903242,0.9359096884727478,0.027146989479660988,0.12795670330524445,10.2903470993042,0.35541462898254395,0.19046883285045624,0.5225887298583984
1781547260673446,109863265,-0.35218876600265503,0.0007217302336357534,0.006134204566478729,0.9359087944030762,0.015946626663208008,0.12830016016960144,10.321764945983887,0.3693927526473999,0.17777132987976074,0.5937087535858154
1781547260703811,109896599,-0.35219138860702515,0.0007090397994033992,0.006140556652098894,0.9359078407287598,0.030297627672553062,0.11629468202590942,10.3013334274292,0.4833180010318756,0.26152485609054565,0.5785716772079468
1781547260733505,109929933,-0.3521968126296997,0.0006885554175823927,0.0061633894219994545,0.9359056949615479,0.031216712668538094,0.11904836446046829,10.309365272521973,0.42156583070755005,0.16002173721790314,0.5940929651260376
1781547260763880,109963267,-0.352199524641037,0.0006878613494336605,0.0061736516654491425,0.9359045028686523,0.019386619329452515,0.12407651543617249,10.322908401489258,0.4568857252597809,0.17818114161491394,0.5918518304824829
1781547260793793,110013268,-0.3522029519081116,0.0006676060147583485,0.006163763348013163,0.9359032511711121,0.02024848572909832,0.10985751450061798,10.324009895324707,0.37118566036224365,0.17339156568050385,0.5705677270889282
1781547260824245,110046602,-0.3522038459777832,0.0006501078023575246,0.006174687761813402,0.9359028935432434,0.027597274631261826,0.12010319530963898,10.318095207214355,0.40728673338890076,0.23094329237937927,0.5358753204345703
1781547260884206,110079936,-0.3522054851055145,0.0006354437209665775,0.006167673505842686,0.9359022974967957,0.018828731030225754,0.14809074997901917,10.303475379943848,0.4233458936214447,0.2188284993171692,0.5567624568939209
1781547260914052,110113270,-0.3522087037563324,0.000626308610662818,0.006175200454890728,0.9359009861946106,0.01981576532125473,0.10035552829504013,10.310441970825195,0.45374178886413574,0.19803741574287415,0.5981334447860718
1781547260943371,110146604,-0.35220474004745483,0.0006145802908577025,0.006188328377902508,0.9359025359153748,0.02470053918659687,0.13569195568561554,10.311274528503418,0.43193894624710083,0.16429905593395233,0.5201362371444702
1781547260973564,110163271,-0.3522108495235443,0.0006067812792025506,0.006188641767948866,0.9359002113342285,0.027693811804056168,0.12034638971090317,10.30802059173584,0.39423707127571106,0.2031407207250595,0.5926202535629272
1781547261003849,110196605,-0.352202445268631,0.000593479722738266,0.006184438709169626,0.9359034299850464,0.027300765737891197,0.13681139051914215,10.272390365600586,0.38972920179367065,0.1824328601360321,0.5381163954734802
1781547261034256,110263273,-0.35221418738365173,0.0005445016431622207,0.006206977181136608,0.9358988404273987,0.003962852992117405,0.1429269015789032,10.309486389160156,0.46531224250793457,0.2570810616016388,0.6183609962463379
1781547261064193,110296607,-0.35222169756889343,0.0005263665807433426,0.006197681650519371,0.935896098613739,0.02581663988530636,0.11953115463256836,10.318406105041504,0.3770253658294678,0.19594356417655945,0.6094093322753906
1781547261124805,110313274,-0.3522159159183502,0.0005209845839999616,0.0061842589639127254,0.9358983635902405,0.018514025956392288,0.13083912432193756,10.319467544555664,0.30017444491386414,0.22071102261543274,0.5256686806678772
1781547261154945,110346608,-0.35223785042762756,0.0005276083247736096,0.006183178164064884,0.9358901381492615,0.024647220969200134,0.1262901872396469,10.292914390563965,0.35279572010040283,0.13128428161144257,0.635021984577179
1781547261184307,110379942,-0.3522386848926544,0.0005178313003852963,0.006198191549628973,0.9358896613121033,0.02128916233778,0.10932108014822006,10.300947189331055,0.4443739652633667,0.1827273964881897,0.5879971981048584
1781547261213939,110413276,-0.3522243797779083,0.0005101852584630251,0.006201715208590031,0.9358950257301331,0.017641713842749596,0.11954916268587112,10.31174373626709,0.3798811435699463,0.181510791182518,0.5118634104728699
1781547261243596,110446610,-0.3522212505340576,0.0004980200319550931,0.006205842364579439,0.9358962774276733,0.0185994915664196,0.12422654777765274,10.29212474822998,0.4494452476501465,0.24152135848999023,0.5613343119621277
1781547261274025,110496611,-0.3522329032421112,0.00047665296006016433,0.006203759927302599,0.9358919262886047,0.0058288839645683765,0.11476035416126251,10.31187915802002,0.4046485722064972,0.19523918628692627,0.5711566805839539
1781547261303663,110529945,-0.3522486686706543,0.00046231437590904534,0.006215211004018784,0.9358858466148376,0.014211847446858883,0.12711986899375916,10.29690170288086,0.4227055311203003,0.14578108489513397,0.5793784260749817
1781547261364162,110563279,-0.3522334098815918,0.0004415208240970969,0.006209969986230135,0.9358916878700256,0.022913062945008278,0.10976465791463852,10.287229537963867,0.3898060917854309,0.17920565605163574,0.5353118181228638
1781547261393484,110596613,-0.35223111510276794,0.00043656339403241873,0.006213950924575329,0.9358925819396973,0.012741749174892902,0.12675856053829193,10.305739402770996,0.3531286418437958,0.16634806990623474,0.5446091890335083
1781547261424018,110613280,-0.35223233699798584,0.0004344038316048682,0.006214665714651346,0.9358920454978943,0.010621335357427597,0.13533084094524384,10.289388656616211,0.38401758670806885,0.1660023033618927,0.5494884252548218
1781547261453723,110646614,-0.35222071409225464,0.000414328183978796,0.006218961905688047,0.9358965158462524,0.022115789353847504,0.12305042147636414,10.310884475708008,0.3967343270778656,0.22227339446544647,0.45785900950431824
1781547261483860,110679948,-0.3522351086139679,0.00040176467155106366,0.0062163956463336945,0.9358910322189331,0.018492568284273148,0.1446361243724823,10.315262794494629,0.3707118332386017,0.26713407039642334,0.6279401183128357
1781547261514688,110746616,-0.35222628712654114,0.00038553212652914226,0.006234137807041407,0.935894250869751,-0.0009688531281426549,0.1076260358095169,10.304802894592285,0.41256293654441833,0.11654418706893921,0.5034624338150024
1781547261543609,110763283,-0.3522290885448456,0.0003755080688279122,0.0062406943179667,0.9358931183815002,0.01804196648299694,0.11511096358299255,10.304344177246094,0.44113391637802124,0.20288458466529846,0.5797370076179504
1781547261604568,110796617,-0.3522425889968872,0.00036199644091539085,0.0062356432899832726,0.9358881115913391,0.018317334353923798,0.1360103189945221,10.307988166809082,0.3609597682952881,0.22149862349033356,0.6378970742225647
1781547261634374,110829951,-0.35223791003227234,0.0003366591699887067,0.0062478091567754745,0.9358897805213928,0.02147473767399788,0.12231682240962982,10.307154655456543,0.45694974064826965,0.23615548014640808,0.5888808369636536
1781547261663996,110863285,-0.3522278964519501,0.00030937339761294425,0.006255894433706999,0.9358934760093689,0.016715509817004204,0.13463722169399261,10.32625675201416,0.4463333487510681,0.25694018602371216,0.4912579357624054
1781547261693433,110896619,-0.35222381353378296,0.00029973805067129433,0.006249262485653162,0.9358951449394226,0.02325965277850628,0.13102507591247559,10.29389476776123,0.2788902819156647,0.16373558342456818,0.5470808744430542
1781547261724158,110913286,-0.352228581905365,0.00030591097311116755,0.006250245496630669,0.9358932375907898,0.013210509903728962,0.14835895597934723,10.316642761230469,0.36635762453079224,0.11243334412574768,0.5989721417427063
1781547261755579,110979954,-0.35221827030181885,0.0002769834245555103,0.006248466670513153,0.9358972311019897,0.025258410722017288,0.13157568871974945,10.322071075439453,0.43154194951057434,0.20257724821567535,0.5453776121139526
1781547261784430,111013288,-0.35221999883651733,0.0002763962547760457,0.006252346094697714,0.9358965754508972,0.01908264122903347,0.1286647915840149,10.2984037399292,0.3691238462924957,0.12485551089048386,0.5488609075546265
1781547261843690,111046622,-0.3522070348262787,0.000277512997854501,0.006266733631491661,0.9359012842178345,0.007721031550318003,0.13987620174884796,10.31096363067627,0.4840351939201355,0.17410872876644135,0.5669435262680054
1781547261873453,111063289,-0.3522089719772339,0.0002763908705674112,0.006273049395531416,0.9359005689620972,0.015713855624198914,0.1371082067489624,10.322543144226074,0.4184795320034027,0.14644701778888702,0.5744736790657043
1781547261903452,111096623,-0.35221338272094727,0.00026295630959793925,0.006266927346587181,0.9358989596366882,0.01637902855873108,0.12883643805980682,10.31031322479248,0.38768017292022705,0.18891283869743347,0.5915957093238831
1781547261934026,111129957,-0.35221588611602783,0.00027068599592894316,0.006257576402276754,0.9358980655670166,0.014294382184743881,0.13599257171154022,10.293508529663086,0.33230555057525635,0.18143394589424133,0.5864987969398499
1781547261965634,111163291,-0.35221973061561584,0.0002692818525247276,0.006273753475397825,0.9358964562416077,0.00539256539195776,0.12885427474975586,10.313820838928223,0.43889281153678894,0.1195920929312706,0.5615264177322388
1781547261993665,111213292,-0.3522065281867981,0.00025840813759714365,0.006269080564379692,0.9359014630317688,0.013396472670137882,0.11881949007511139,10.298131942749023,0.3928539454936981,0.19279317557811737,0.5023098587989807
1781547262023974,111246626,-0.35221341252326965,0.00027074795798398554,0.006275066640228033,0.9358987808227539,0.022561777383089066,0.1269087791442871,10.30829906463623,0.3262481391429901,0.06722693145275116,0.5496549010276794
1781547262085796,111279960,-0.35207000374794006,0.0004343644541222602,0.00614683935418725,0.9359535574913025,0.018110251054167747,0.1281249225139618,10.310091972351074,0.42013150453567505,0.18053750693798065,0.5511276721954346
1781547262114433,111313294,-0.35207757353782654,0.0004352264222688973,0.006154340226203203,0.9359506964683533,0.015721319243311882,0.11807934939861298,10.296624183654785,0.4166865944862366,0.1872096210718155,0.5175109505653381
1781547262143781,111346628,-0.3520793318748474,0.00042465413571335375,0.006148706190288067,0.9359501004219055,0.022068774327635765,0.12751324474811554,10.309085845947266,0.3382605016231537,0.2126046121120453,0.5776239037513733
1781547262173840,111363295,-0.3520869016647339,0.0004276173422113061,0.006144960876554251,0.9359472990036011,0.027619048953056335,0.11814000457525253,10.30709457397461,0.3448942005634308,0.14584511518478394,0.5873055458068848
1781547262205332,111396629,-0.35209181904792786,0.0004291510849725455,0.006157125346362591,0.9359453320503235,-0.0007155472994782031,0.12893296778202057,10.295632362365723,0.3755013346672058,0.07904718816280365,0.5663415789604187
1781547262233806,111463297,-0.35208654403686523,0.0004370317910797894,0.006135351024568081,0.9359474778175354,0.037604279816150665,0.12506020069122314,10.3065824508667,0.2981126010417938,0.1611999124288559,0.5430084466934204
1781547262263683,111496631,-0.3520957827568054,0.0004309697251301259,0.00612974725663662,0.9359440803527832,0.02608485519886017,0.13138985633850098,10.310023307800293,0.32994917035102844,0.22217094898223877,0.5780721306800842
1781547262324585,111513298,-0.3520950675010681,0.00042517753900028765,0.00612609414383769,0.9359443783760071,0.009176547639071941,0.13344617187976837,10.30677604675293,0.3670491874217987,0.20218025147914886,0.5610526204109192
1781547262353686,111546632,-0.3521091341972351,0.00042750599095597863,0.006119430996477604,0.9359389543533325,0.011711735278367996,0.13368210196495056,10.310534477233887,0.40211939811706543,0.15609659254550934,0.5927162766456604
1781547262383871,111579966,-0.3521062135696411,0.00041924219112843275,0.0061221253126859665,0.935940146446228,0.017677193507552147,0.12976983189582825,10.312312126159668,0.4324896037578583,0.15238916873931885,0.5979348421096802
1781547262413418,111613300,-0.3521084785461426,0.0004211149353068322,0.006133418995887041,0.9359391927719116,0.019576530903577805,0.11729971319437027,10.311543464660645,0.43515974283218384,0.14468613266944885,0.589309811592102
1781547262443356,111646634,-0.3521035611629486,0.00040810403879731894,0.006134867202490568,0.9359410405158997,0.02255183458328247,0.1223350539803505,10.309258460998535,0.34431788325309753,0.21173377335071564,0.5407289266586304
1781547262473688,111696635,-0.35210612416267395,0.0003943677293136716,0.006155415438115597,0.9359399676322937,0.023435255512595177,0.13009540736675262,10.301183700561523,0.4482158124446869,0.19143572449684143,0.5679551959037781
1781547262504373,111729969,-0.35209840536117554,0.00037840023287571967,0.006144572980701923,0.9359430074691772,0.02760791778564453,0.13008776307106018,10.318649291992188,0.2781859338283539,0.24625970423221588,0.5028349161148071
1781547262565783,111763303,-0.3520982563495636,0.00038035307079553604,0.006157943978905678,0.9359428882598877,0.007188176736235619,0.12742383778095245,10.312737464904785,0.4764794409275055,0.07993082702159882,0.5701578855514526
1781547262594922,111796637,-0.35210075974464417,0.0003729815362021327,0.006150367669761181,0.9359420537948608,0.011203971691429615,0.12906163930892944,10.334953308105469,0.32304656505584717,0.15731962025165558,0.6119321584701538
1781547262623601,111813304,-0.3520933985710144,0.00036961922887712717,0.006152284797281027,0.9359447956085205,0.017269505187869072,0.13321372866630554,10.313177108764648,0.3973618149757385,0.17295615375041962,0.5021049380302429
1781547262653667,111846638,-0.3521011173725128,0.00036538284621201456,0.006151484791189432,0.9359418749809265,0.021503735333681107,0.12531030178070068,10.32620906829834,0.36566606163978577,0.1611999273300171,0.5307270884513855
1781547262683746,111879972,-0.3520906865596771,0.000348759931512177,0.006163719575852156,0.9359456896781921,0.008947234600782394,0.1281711459159851,10.303732872009277,0.5115303993225098,0.18124185502529144,0.5901998281478882
1781547262713473,111946640,-0.3520934283733368,0.0003444328613113612,0.006152224261313677,0.9359447956085205,0.0142869483679533,0.10773681849241257,10.307476997375488,0.3165537118911743,0.20502322912216187,0.5320589542388916
1781547262744053,111963307,-0.3520931899547577,0.0003408991906326264,0.006157588679343462,0.9359449148178101,0.03048683889210224,0.13679340481758118,10.300334930419922,0.4202723801136017,0.16604073345661163,0.5406264662742615
1781547262803709,111996641,-0.3520857095718384,0.000329027563566342,0.00614960165694356,0.9359477162361145,0.01760176755487919,0.13254128396511078,10.291695594787598,0.40589720010757446,0.19397777318954468,0.5528116226196289
1781547262833739,112029975,-0.35208022594451904,0.00032740648020990193,0.006151585374027491,0.9359498620033264,0.015191728249192238,0.12457717955112457,10.315909385681152,0.3536793291568756,0.21849553287029266,0.5671226978302002
1781547262865106,112063309,-0.3520738184452057,0.0003136874584015459,0.006163373123854399,0.9359521269798279,0.012108688242733479,0.12030709534883499,10.305621147155762,0.4546830356121063,0.1680513173341751,0.5335444211959839
1781547262893994,112096643,-0.3520813286304474,0.0003121726622339338,0.0061707207933068275,0.9359492063522339,0.025473324581980705,0.11340868473052979,10.299962997436523,0.40642866492271423,0.20554828643798828,0.5788021087646484
1781547262923924,112113310,-0.35207656025886536,0.00030314718605950475,0.006164149846881628,0.9359510540962219,0.03410244360566139,0.13483713567256927,10.328951835632324,0.3569834232330322,0.23039263486862183,0.5190989971160889
1781547262953961,112179978,-0.35207322239875793,0.0002955228555947542,0.006179803982377052,0.9359522461891174,0.019436687231063843,0.13004162907600403,10.311059951782227,0.3825320303440094,0.10453182458877563,0.5366820693016052
1781547262984090,112213312,-0.35208001732826233,0.0002937037206720561,0.006171443033963442,0.9359496831893921,0.005493054166436195,0.12527811527252197,10.281474113464355,0.358622670173645,0.2169972062110901,0.5691847205162048
1781547263043641,112246646,-0.3520911633968353,0.00026620918652042747,0.00617541279643774,0.935945451259613,0.012745928019285202,0.11093056946992874,10.310145378112793,0.40750443935394287,0.257516473531723,0.5504105091094971
1781547263074637,112263313,-0.35209089517593384,0.0002712920540943742,0.006167033687233925,0.9359455704689026,0.026556914672255516,0.11608726531267166,10.306396484375,0.31155925989151,0.14434675872325897,0.5501415133476257
1781547263104238,112296647,-0.3520665466785431,0.0002638627775013447,0.006194989662617445,0.9359545707702637,0.012773883529007435,0.12618285417556763,10.317623138427734,0.4549903869628906,0.10845056176185608,0.5007218718528748
1781547263135116,112329981,-0.3520721197128296,0.0002606683410704136,0.006200589705258608,0.9359524846076965,0.02127843350172043,0.1315293312072754,10.282940864562988,0.3408986032009125,0.11687714606523514,0.611868143081665
1781547263163629,112363315,-0.35207483172416687,0.00025140817160718143,0.0061896550469100475,0.9359515309333801,0.026785792782902718,0.14028030633926392,10.307072639465332,0.3635786771774292,0.2018985152244568,0.5760615468025208
1781547263193502,112413316,-0.35207104682922363,0.00022593133326154202,0.006187061313539743,0.9359529614448547,0.021553801372647285,0.13681139051914215,10.295242309570312,0.44674310088157654,0.2334021031856537,0.5269364714622498
1781547263223902,112446650,-0.35206836462020874,0.0002178538852604106,0.006196974776685238,0.9359539151191711,0.01313153374940157,0.13514474034309387,10.308196067810059,0.40443092584609985,0.23153242468833923,0.5128110647201538
1781547263284128,112479984,-0.3520697355270386,0.00022151946905069053,0.0062053753063082695,0.9359533190727234,0.017015298828482628,0.1288721114397049,10.318888664245605,0.36891889572143555,0.17207249999046326,0.5551232099533081
1781547263314648,112513318,-0.3520614206790924,0.00022121542133390903,0.006204369477927685,0.9359565377235413,0.02000172808766365,0.1258324235677719,10.302749633789062,0.3535960912704468,0.1559685468673706,0.5563718676567078
1781547263343461,112546652,-0.3520578145980835,0.00022228485613595694,0.006212882697582245,0.9359579086303711,0.01080014556646347,0.12567150592803955,10.335532188415527,0.4056731164455414,0.15847216546535492,0.5592597126960754
1781547263374041,112563319,-0.35205525159835815,0.00021565142378676683,0.006211783271282911,0.9359588623046875,0.01400800421833992,0.14043408632278442,10.297195434570312,0.3873984217643738,0.20276933908462524,0.5685954689979553
1781547263404981,112596653,-0.3520517945289612,0.00021658837795257568,0.006210925988852978,0.9359601140022278,0.026556914672255516,0.12196297198534012,10.299695014953613,0.3680480420589447,0.13881440460681915,0.5658549070358276
1781547263434900,112663321,-0.35204336047172546,0.00022172823082655668,0.006223198492079973,0.9359631538391113,0.029167545959353447,0.12002108991146088,10.318120002746582,0.34573936462402344,0.12202529609203339,0.552497923374176
1781547263464102,112696655,-0.35203832387924194,0.00020736221631523222,0.006221073679625988,0.9359650015830994,-0.007939180359244347,0.12653693556785583,10.303467750549316,0.3556002974510193,0.2120923548936844,0.5074323415756226
1781547263526124,112713322,-0.3520313501358032,0.0002120403660228476,0.0062286099418997765,0.9359675645828247,0.01272414531558752,0.11660224199295044,10.307194709777832,0.4154059588909149,0.10841215401887894,0.47849002480506897
1781547263554318,112746656,-0.3520309627056122,0.00019295264792162925,0.006219200324267149,0.9359679222106934,0.016600754112005234,0.1237582266330719,10.323856353759766,0.35218745470046997,0.23742973804473877,0.49007344245910645
1781547263584514,112779990,-0.35200929641723633,0.00020330694678705186,0.006217282731086016,0.9359760880470276,0.0006580221233889461,0.1217162162065506,10.301691055297852,0.2826937437057495,0.1437704861164093,0.5448652505874634
1781547263613644,112813324,-0.35200172662734985,0.00018947535136248916,0.0062207067385315895,0.9359789490699768,0.011003989726305008,0.12602196633815765,10.302080154418945,0.4764537811279297,0.15624386072158813,0.5305606126785278
1781547263643478,112846658,-0.3520107567310333,0.00019626927678473294,0.006224009674042463,0.9359753131866455,0.008815350942313671,0.12643323838710785,10.308067321777344,0.3798043429851532,0.1784500777721405,0.5568777322769165
1781547263674231,112896659,-0.35199978947639465,0.00021163240307942033,0.00623454200103879,0.9359794855117798,0.02275540679693222,0.13478724658489227,10.302427291870117,0.3545117676258087,0.14000540971755981,0.5432261228561401
1781547263703864,112929993,-0.3519962728023529,0.00020955971558578312,0.006224648095667362,0.9359808564186096,0.022522954270243645,0.11771444231271744,10.301007270812988,0.3734779357910156,0.1611999273300171,0.6149289011955261
1781547263764144,112963327,-0.3519931733608246,0.00021781462419312447,0.006217671558260918,0.9359822273254395,0.02572723478078842,0.1375945806503296,10.324445724487305,0.347084105014801,0.1296834945678711,0.5406008958816528
1781547263793559,112996661,-0.35197800397872925,0.00022524553060065955,0.006211715750396252,0.9359878301620483,0.011819365434348583,0.12650476396083832,10.301307678222656,0.3689573109149933,0.12978595495224,0.5078678131103516
1781547263824449,113013328,-0.3519594669342041,0.00022881783661432564,0.006221207790076733,0.9359946846961975,0.02158653922379017,0.13115395605564117,10.302574157714844,0.43131783604621887,0.11122313886880875,0.4465702176094055
1781547263854495,113046662,-0.35194385051727295,0.00022376130800694227,0.006230049300938845,0.9360005259513855,0.025841673836112022,0.12553203105926514,10.320805549621582,0.34217923879623413,0.2085449993610382,0.5098399519920349
1781547263884192,113079996,-0.35195043683052063,0.0002081901766359806,0.006236351560801268,0.9359979629516602,0.015188151970505714,0.11526831239461899,10.316707611083984,0.4903359115123749,0.16686032712459564,0.592248797416687
1781547263914524,113146664,-0.3519477844238281,0.00019194101332686841,0.00624252250418067,0.9359990358352661,0.014708940871059895,0.13046719133853912,10.305424690246582,0.44593632221221924,0.15871550142765045,0.5182409882545471
1781547263944041,113179998,-0.35194963216781616,0.00020765034423675388,0.006230310071259737,0.9359983205795288,0.0053106676787137985,0.12801390886306763,10.323995590209961,0.31800082325935364,0.103981152176857,0.5291903614997864
1781547264004111,113196665,-0.3519451916217804,0.00020293604757171124,0.006236454006284475,0.9359999895095825,0.02525908127427101,0.12283569574356079,10.30782413482666,0.43019726872444153,0.17319948971271515,0.5279225707054138
1781547264033709,113229999,-0.3519309163093567,0.00019383005565032363,0.006237426772713661,0.9360053539276123,0.025505511090159416,0.12408009171485901,10.316452980041504,0.434282511472702,0.1933566778898239,0.5194191932678223
1781547264063469,113263333,-0.3521260619163513,0.00013084420061204582,0.006225379183888435,0.9359321594238281,0.011390220373868942,0.11119858920574188,10.31291675567627,0.41911983489990234,0.16800011694431305,0.5690310001373291
1781547264095698,113296667,-0.3521278500556946,0.00014210656809154898,0.006220287177711725,0.9359313249588013,0.027093347162008286,0.12855392694473267,10.306843757629395,0.38208383321762085,0.10243158787488937,0.5325584411621094
1781547264124228,113313334,-0.3521229028701782,0.00014127053145784885,0.0062265293672680855,0.9359331727027893,0.02351713925600052,0.11508235335350037,10.299198150634766,0.4218475818634033,0.14790694415569305,0.523004949092865
1781547264154772,113380002,-0.35212358832359314,0.0001122840476455167,0.006212842185050249,0.9359330534934998,0.020191267132759094,0.12453784048557281,10.29814624786377,0.35995450615882874,0.1653875857591629,0.5994203686714172
1781547264184726,113413336,-0.35210856795310974,0.00011336501484038308,0.00622352072969079,0.9359385967254639,0.012902955524623394,0.12641535699367523,10.320537567138672,0.4581983983516693,0.11000654101371765,0.5077205300331116
1781547264243841,113446670,-0.35210636258125305,0.00011648032523225993,0.006244271993637085,0.9359392523765564,0.01582471653819084,0.1241229996085167,10.314879417419434,0.4290446639060974,0.09916595369577408,0.5430595874786377
1781547264274938,113463337,-0.35210737586021423,0.00011057704978156835,0.006234661675989628,0.9359390735626221,0.016253862529993057,0.12357942014932632,10.294970512390137,0.33240798115730286,0.21932794153690338,0.569837749004364
1781547264304687,113496671,-0.3521115481853485,0.00010116685734828934,0.006254065316170454,0.9359374046325684,0.011751417070627213,0.11418114602565765,10.316646575927734,0.45195528864860535,0.20127098262310028,0.5393073558807373
1781547264334691,113530005,-0.35210734605789185,0.00011056536459363997,0.006244712043553591,0.9359390139579773,0.015374114736914635,0.11661297082901001,10.304068565368652,0.32490992546081543,0.17823877930641174,0.538314938545227
1781547264364759,113563339,-0.35210248827934265,0.00010759006545413285,0.00624495605006814,0.9359408617019653,0.014165648259222507,0.1255500465631485,10.302867889404297,0.3751043677330017,0.18376469612121582,0.5381420254707336
1781547264394188,113613340,-0.35210558772087097,9.907053754432127e-05,0.006232620682567358,0.9359397888183594,0.02192547544836998,0.11256460845470428,10.30527400970459,0.3201459050178528,0.1554434448480606,0.5484959483146667
1781547264424772,113646674,-0.35211291909217834,0.00010176342038903385,0.0062429881654679775,0.9359368681907654,0.01717616431415081,0.13648581504821777,10.301054000854492,0.42001625895500183,0.18626192212104797,0.5939392447471619
1781547264483589,113680008,-0.3520963490009308,8.90410301508382e-05,0.006241463124752045,0.9359431862831116,0.03876997157931328,0.12768152356147766,10.309802055358887,0.3680608570575714,0.24990947544574738,0.5793527960777283
1781547264514138,113713342,-0.35208556056022644,7.380849274341017e-05,0.006246483419090509,0.9359471201896667,0.011880160309374332,0.13425081968307495,10.316102981567383,0.4855591058731079,0.21636967360973358,0.5290495157241821
1781547264544068,113746676,-0.3520908057689667,6.935055716894567e-05,0.0062520792707800865,0.9359450936317444,0.0069414181634783745,0.12405148148536682,10.292635917663574,0.3903054893016815,0.10212422162294388,0.570900559425354
1781547264573510,113763343,-0.35209426283836365,6.122818012954667e-05,0.006248693913221359,0.9359439015388489,0.016840675845742226,0.13103598356246948,10.305120468139648,0.37830597162246704,0.21882851421833038,0.576087236404419
1781547264603769,113796677,-0.35209348797798157,6.554841093020514e-05,0.0062429760582745075,0.9359441995620728,0.010757231153547764,0.14680688083171844,10.303665161132812,0.3514126241207123,0.13827654719352722,0.5714256763458252
1781547264636910,113863345,-0.3520941436290741,3.807106986641884e-05,0.00623001204803586,0.9359440803527832,0.021775269880890846,0.12947285175323486,10.320712089538574,0.3325616717338562,0.21151606738567352,0.5337878465652466
1781547264667059,113896679,-0.35209551453590393,2.6062891265610233e-05,0.00622588349506259,0.935943603515625,0.008450577966868877,0.12495983392000198,10.311721801757812,0.36676105856895447,0.15694181621074677,0.5171972513198853
1781547264723530,113913346,-0.3521111309528351,2.8696445951936767e-05,0.00620996905490756,0.9359378218650818,0.01445145346224308,0.1299164593219757,10.301751136779785,0.2718724012374878,0.18030698597431183,0.640759289264679
1781547264753667,113946680,-0.3521060645580292,3.3604646887397394e-05,0.006202789954841137,0.9359397888183594,0.020863868296146393,0.13168320059776306,10.3046236038208,0.3139156401157379,0.12596964836120605,0.6049911379814148
1781547264783654,113980014,-0.3521083891391754,1.9734326997422613e-05,0.006203002762049437,0.9359388947486877,0.023881912231445312,0.12179489433765411,10.313156127929688,0.4140740931034088,0.19886338710784912,0.5843088626861572
1781547264814760,114013348,-0.35212838649749756,1.1222684406675398e-05,0.006209788843989372,0.9359313249588013,0.013442610390484333,0.12823544442653656,10.310441970825195,0.37647461891174316,0.2242455780506134,0.6511067748069763
1781547264843953,114046682,-0.3521222174167633,3.42540442943573e-06,0.006224174052476883,0.9359335899353027,0.015284709632396698,0.11872650682926178,10.294859886169434,0.4587682783603668,0.13504937291145325,0.5768941044807434
1781547264873840,114096683,-0.352103054523468,-7.012638889136724e-06,0.006205083802342415,0.9359409213066101,0.004133809357881546,0.13471201062202454,10.312508583068848,0.3824680745601654,0.24053527414798737,0.5176646709442139
1781547264904208,114130017,-0.3520997166633606,3.0075116228545085e-06,0.0062049864791333675,0.9359421133995056,-0.005053180735558271,0.12213820964097977,10.31116771697998,0.34232011437416077,0.09044484794139862,0.5131312012672424
1781547264963679,114163351,-0.3520961105823517,7.464250302291475e-06,0.006206615827977657,0.9359434843063354,0.016321472823619843,0.1225493773818016,10.327919006347656,0.41920942068099976,0.15493759512901306,0.5562117695808411
1781547264994219,114196685,-0.3521006405353546,1.5972416804288514e-05,0.006200944539159536,0.9359418153762817,0.02067047730088234,0.11815788596868515,10.31973934173584,0.34007900953292847,0.10008801519870758,0.5860762000083923
1781547265024895,114213352,-0.35208868980407715,1.3952339941170067e-05,0.006198979448527098,0.9359462857246399,0.015442063100636005,0.12844306230545044,10.295926094055176,0.3732474744319916,0.1762986034154892,0.501157283782959
1781547265053612,114246686,-0.35209521651268005,1.8830583940143697e-05,0.006172777619212866,0.9359440207481384,0.018256092444062233,0.11792515218257904,10.328093528747559,0.28918659687042236,0.18622352182865143,0.5352606177330017
1781547265085371,114280020,-0.352092981338501,2.5249222744605504e-05,0.00615655118599534,0.9359449148178101,0.018785817548632622,0.12227052450180054,10.307391166687012,0.26968252658843994,0.15414363145828247,0.48673737049102783
1781547265115131,114346688,-0.352087140083313,-8.405431799474172e-06,0.00614971574395895,0.9359471797943115,0.007063332945108414,0.13116832077503204,10.310323715209961,0.36941835284233093,0.2449406385421753,0.6078854203224182
1781547265143547,114363355,-0.35208070278167725,-2.0133018551860005e-05,0.006155616603791714,0.9359495043754578,0.011168495751917362,0.12939433753490448,10.3126802444458,0.447613924741745,0.22001951932907104,0.5348636507987976
1781547265204226,114396689,-0.3520655632019043,-2.7441737984190695e-05,0.006143299862742424,0.9359553456306458,0.014111713506281376,0.1327488124370575,10.323598861694336,0.33872154355049133,0.18831096589565277,0.4997357726097107
1781547265234025,114430023,-0.3520682156085968,-3.2590865885140374e-05,0.00614383677020669,0.9359543323516846,0.014350825920701027,0.12246695905923843,10.318280220031738,0.33872154355049133,0.18469958007335663,0.5052040815353394
1781547265264613,114463357,-0.3520737886428833,-3.2023206586018205e-05,0.006145494058728218,0.9359521865844727,0.0067661842331290245,0.11993526667356491,10.319900512695312,0.42749515175819397,0.15520654618740082,0.5489633083343506
1781547265293589,114496691,-0.35208722949028015,-2.778361340460833e-05,0.006144566461443901,0.9359471201896667,0.007510035298764706,0.13300272822380066,10.324263572692871,0.37858766317367554,0.18175408244132996,0.5720019340515137
1781547265323657,114513358,-0.3520890474319458,-3.616455433075316e-05,0.006150729488581419,0.9359464645385742,0.02191857434809208,0.11675243824720383,10.328119277954102,0.4412107467651367,0.19780045747756958,0.5452238321304321
1781547265354393,114580026,-0.35208261013031006,-2.3325395886786282e-05,0.006158814299851656,0.9359488487243652,0.021439362317323685,0.1150716245174408,10.33099365234375,0.4294673204421997,0.09782129526138306,0.5579277873039246
1781547265383795,114613360,-0.35207444429397583,-1.1550457202247344e-05,0.006163123995065689,0.9359519481658936,0.018903831019997597,0.12516367435455322,10.314979553222656,0.4075300693511963,0.1473306566476822,0.5454416871070862
1781547265443522,114646694,-0.35207265615463257,-2.59449898294406e-05,0.00618714326992631,0.9359524250030518,0.0164044126868248,0.13927553594112396,10.319833755493164,0.4789382517337799,0.1984279602766037,0.5025915503501892
1781547265473751,114663361,-0.3520783483982086,-3.500893944874406e-05,0.006185069680213928,0.9359503388404846,0.02121763862669468,0.13394327461719513,10.332595825195312,0.39022865891456604,0.2227216213941574,0.596065104007721
1781547265504223,114696695,-0.35207048058509827,-4.681537393480539e-05,0.006189642008394003,0.9359532594680786,0.006487240083515644,0.12413015216588974,10.312294006347656,0.40199774503707886,0.14923880994319916,0.561897873878479
1781547265534304,114730029,-0.3521004021167755,-4.107815766474232e-05,0.0061878333799541,0.9359419941902161,0.023906655609607697,0.13467274606227875,10.298918724060059,0.3275928497314453,0.12466339766979218,0.6185275316238403
1781547265564482,114763363,-0.35210636258125305,-5.2663745009340346e-05,0.0061960406601428986,0.9359396696090698,0.01911809854209423,0.11859768629074097,10.316364288330078,0.40110132098197937,0.1378667652606964,0.5279609560966492
1781547265594475,114813364,-0.35211804509162903,-5.814350879518315e-05,0.006186538841575384,0.9359353184700012,0.020420143380761147,0.12684449553489685,10.320916175842285,0.35802072286605835,0.11257421970367432,0.6123932600021362
1781547265625411,114846698,-0.35211116075515747,-3.8268852222245187e-05,0.006190450396388769,0.9359378814697266,0.009004889987409115,0.11924147605895996,10.34576416015625,0.3677663505077362,0.11376520991325378,0.49102747440338135
1781547265684869,114880032,-0.35210609436035156,-4.049645212944597e-05,0.006204457487910986,0.9359396696090698,0.0071953292936086655,0.12809258699417114,10.306954383850098,0.37585991621017456,0.10573562234640121,0.5857688188552856
1781547265714176,114913366,-0.3521062135696411,-5.329045234248042e-05,0.006197717972099781,0.9359397292137146,0.01345011591911316,0.12586818635463715,10.307376861572266,0.3820582330226898,0.20959512889385223,0.5697864890098572
1781547265743535,114946700,-0.3520958125591278,-6.735453644068912e-05,0.006187750957906246,0.9359437227249146,0.019543973729014397,0.1129223182797432,10.30683708190918,0.3700394332408905,0.25840651988983154,0.46893012523651123
1781547265774456,114963367,-0.3520827889442444,-7.265104068210348e-05,0.006187461316585541,0.9359486103057861,0.01843501813709736,0.12305358052253723,10.306668281555176,0.3932510018348694,0.19509834051132202,0.5795193314552307
1781547265805356,114996701,-0.3520873486995697,-9.108517406275496e-05,0.0061948723159730434,0.9359468817710876,0.002946794731542468,0.11468539386987686,10.320176124572754,0.40665921568870544,0.16759029030799866,0.5551488399505615
1781547265834003,115063369,-0.3520892560482025,-8.73443204909563e-05,0.006180569529533386,0.9359462261199951,0.013164311647415161,0.12252814322710037,10.310049057006836,0.3453168272972107,0.15787029266357422,0.5845522284507751
1781547265863884,115096703,-0.352084219455719,-9.360798867419362e-05,0.006178264506161213,0.9359481930732727,0.009165819734334946,0.11890531331300735,10.317523002624512,0.34760916233062744,0.13444745540618896,0.5410362482070923
1781547265924667,115113370,-0.35208359360694885,-9.69179454841651e-05,0.006177352741360664,0.9359483122825623,0.012448457069694996,0.1308211237192154,10.322579383850098,0.3843505382537842,0.1834317296743393,0.5771245360374451
1781547265953976,115146704,-0.3520745635032654,-0.00010947911505354568,0.006182861048728228,0.9359517693519592,0.017870306968688965,0.13223384320735931,10.316971778869629,0.4212456941604614,0.21316811442375183,0.5659061670303345
1781547266003057,115180038,-0.352070689201355,-9.128163947025314e-05,0.006179443094879389,0.9359531402587891,0.018324486911296844,0.12047526985406876,10.305785179138184,0.3293793201446533,0.07911762595176697,0.5534007549285889
1781547266013630,115213372,-0.3520844578742981,-8.625669579487294e-05,0.006185101345181465,0.9359479546546936,0.029360661283135414,0.12565362453460693,10.295818328857422,0.38249364495277405,0.06576700508594513,0.5895082354545593
1781547266043532,115246706,-0.3520694971084595,-9.309104643762112e-05,0.006184306927025318,0.9359535574913025,0.017909646034240723,0.1330098807811737,10.29107666015625,0.3598456382751465,0.2111382782459259,0.5404919981956482
1781547266073666,115296707,-0.3520932197570801,-0.00011331180576235056,0.006222840864211321,0.9359443783760071,0.011547572910785675,0.12433400005102158,10.30429458618164,0.37154421210289,0.15012243390083313,0.4917573928833008
1781547266103877,115330041,-0.35209378600120544,-0.00013066806423012167,0.0062330905348062515,0.9359440803527832,0.006190415006130934,0.11645561456680298,10.277494430541992,0.43055590987205505,0.19398419559001923,0.5627173781394958
1781547266163596,115363375,-0.3520922064781189,-0.0001335045089945197,0.00622565159574151,0.9359447956085205,0.02265169657766819,0.1366039663553238,10.300532341003418,0.33029496669769287,0.18847744166851044,0.6085129380226135
1781547266193604,115396709,-0.3520949184894562,-0.0001487946865381673,0.00623322045430541,0.9359437227249146,-0.0017487653531134129,0.11535771936178207,10.311443328857422,0.40512245893478394,0.18216392397880554,0.5406008958816528
1781547266223925,115413376,-0.3520980775356293,-0.00014706050569657236,0.006223536562174559,0.9359425902366638,0.021811287850141525,0.12434472888708115,10.295110702514648,0.3156317174434662,0.1723286509513855,0.578008234500885
1781547266254224,115446710,-0.3521002531051636,-0.00013981030497234315,0.006213990971446037,0.9359418749809265,0.011540421284735203,0.1351126879453659,10.30108642578125,0.34363919496536255,0.15278615057468414,0.600560188293457
1781547266284989,115480044,-0.35210782289505005,-0.00013158672663848847,0.0062218219973146915,0.9359390139579773,0.012785297818481922,0.1219058632850647,10.315942764282227,0.44580820202827454,0.1490723192691803,0.553881049156189
1781547266314259,115546712,-0.35212481021881104,-0.0001423067442374304,0.006216472014784813,0.9359325170516968,0.03161367401480675,0.11564381420612335,10.3080415725708,0.3747073709964752,0.14777886867523193,0.5823367238044739
1781547266343709,115563379,-0.3521256148815155,-0.00013367750216275454,0.006220276467502117,0.9359322190284729,0.0179060697555542,0.12225621938705444,10.29513168334961,0.3857336938381195,0.09508074820041656,0.5342873334884644
1781547266404392,115596713,-0.35213473439216614,-0.00014754907169844955,0.006215664092451334,0.9359288811683655,0.023320447653532028,0.1288793534040451,10.300056457519531,0.3891657590866089,0.20248757302761078,0.6151081919670105
1781547266435410,115630047,-0.3521402180194855,-0.00015351120964623988,0.006209380459040403,0.9359267354011536,0.001863755052909255,0.12080805748701096,10.319679260253906,0.3666650056838989,0.14341188967227936,0.520789384841919
1781547266464453,115663381,-0.35213685035705566,-0.00015708852151874453,0.00620386702939868,0.9359281659126282,0.009147938340902328,0.12975195050239563,10.3272066116333,0.36638322472572327,0.20348647236824036,0.5481564998626709
1781547266493708,115696715,-0.35214272141456604,-0.0001708836789475754,0.006201197858899832,0.9359259605407715,0.016922613605856895,0.13264510035514832,10.290382385253906,0.40229228138923645,0.23078961670398712,0.5376297831535339
1781547266524299,115713382,-0.3521384596824646,-0.00017166823090519756,0.006214652210474014,0.9359275102615356,0.011057632975280285,0.12930135428905487,10.316693305969238,0.47093433141708374,0.13270579278469086,0.5424065589904785
1781547266554318,115780050,-0.3521205484867096,-0.00018550986715126783,0.006161812227219343,0.9359346032142639,0.02195076085627079,0.13256284594535828,10.303007125854492,0.33598101139068604,0.17205972969532013,0.5515631437301636
1781547266585639,115813384,-0.35211458802223206,-0.00019239452376496047,0.006180869415402412,0.9359366297721863,0.01759885624051094,0.13138283789157867,10.295339584350586,0.41605910658836365,0.17736153304576874,0.5647023916244507
1781547266643750,115846718,-0.3520994484424591,-0.00018041989824268967,0.0061622606590390205,0.935942530632019,0.00296420743688941,0.12551750242710114,10.324457168579102,0.31333932280540466,0.14777886867523193,0.5178055167198181
1781547266673576,115863385,-0.35209396481513977,-0.00017704171477817,0.006156837102025747,0.9359446167945862,0.019787155091762543,0.1341220736503601,10.328873634338379,0.33945149183273315,0.15159516036510468,0.5228639841079712
1781547266703890,115896719,-0.35208094120025635,-0.00017390512221027166,0.0061399070546031,0.9359496235847473,0.019404500722885132,0.13466209173202515,10.302852630615234,0.3481598496437073,0.17975632846355438,0.5096479058265686
1781547266733673,115930053,-0.35208240151405334,-0.00017057792865671217,0.00615445151925087,0.93594890832901,-0.0027968769427388906,0.12674789130687714,10.309175491333008,0.3703276515007019,0.1000111997127533,0.5300484299659729
1781547266764216,115963387,-0.35208138823509216,-0.00017058505909517407,0.006155644077807665,0.9359493851661682,0.013846784830093384,0.1349695771932602,10.316922187805176,0.38017570972442627,0.12485548853874207,0.5272437334060669
1781547266793779,116013388,-0.3520828187465668,-0.00017256144201382995,0.006152531132102013,0.9359487891197205,0.013979393988847733,0.1283465027809143,10.30980110168457,0.3825576901435852,0.14786852896213531,0.5796346068382263
1781547266823898,116046722,-0.3520800769329071,-0.00018706587434280664,0.0061486391350626945,0.9359498620033264,0.02100306563079357,0.11276496946811676,10.315720558166504,0.3933790326118469,0.19393296539783478,0.578507661819458
1781547266883606,116080056,-0.3520839214324951,-0.00019614523625932634,0.006152455694973469,0.9359484314918518,0.02187531068921089,0.1279744952917099,10.307062149047852,0.4509947896003723,0.15413081645965576,0.5387822985649109
1781547266914053,116113390,-0.35208988189697266,-0.00019690509361680597,0.006156824994832277,0.9359461665153503,0.02209414914250374,0.13390402495861053,10.311140060424805,0.4062238037586212,0.13145075738430023,0.5779953598976135
1781547266943581,116146724,-0.35208868980407715,-0.000192009232705459,0.006171871442347765,0.935946524143219,0.02346675656735897,0.1268194019794464,10.321281433105469,0.34965819120407104,0.09755238145589828,0.624495267868042
1781547266974192,116163391,-0.35208559036254883,-0.0001955767220351845,0.0061740814708173275,0.9359477162361145,0.02325965277850628,0.1156974583864212,10.306493759155273,0.4056859314441681,0.17821955680847168,0.536400318145752
1781547267004818,116196725,-0.35207462310791016,-0.0001902202784549445,0.006182338576763868,0.9359516501426697,0.015184576623141766,0.1318797916173935,10.306197166442871,0.4351789355278015,0.14210565388202667,0.5327633619308472
1781547267034794,116263393,-0.3520527482032776,-0.00021029546041972935,0.006208028644323349,0.9359597563743591,0.013217662461102009,0.12286775559186935,10.294710159301758,0.3933085799217224,0.18774107098579407,0.6094029545783997
1781547267064833,116296727,-0.3520587384700775,-0.00020908823353238404,0.006198955699801445,0.9359574913978577,0.014097409322857857,0.12611494958400726,10.326151847839355,0.2923753261566162,0.12522688508033752,0.6228047609329224
1781547267124328,116313394,-0.3520558178424835,-0.00021512064267881215,0.006194552406668663,0.935958743095398,0.025165770202875137,0.12012837827205658,10.322955131530762,0.3690854012966156,0.21004337072372437,0.5211736559867859
1781547267154769,116346728,-0.3520537316799164,-0.0002120104618370533,0.006218583323061466,0.9359593391418457,0.01425476185977459,0.13156509399414062,10.311217308044434,0.43451303243637085,0.134383425116539,0.542829155921936
1781547267184296,116380062,-0.3520488142967224,-0.00021528212528210133,0.006205019075423479,0.9359613060951233,-0.004753055516630411,0.1238260492682457,10.297745704650879,0.3251211643218994,0.18143394589424133,0.5898028016090393
1781547267214173,116413396,-0.3520621955394745,-0.00022188860748428851,0.006210092920809984,0.9359562397003174,0.006118496414273977,0.12584653496742249,10.31869888305664,0.4239862263202667,0.2274087518453598,0.6438711881637573
1781547267243695,116446730,-0.3520777225494385,-0.0002080228296108544,0.006213372107595205,0.9359503388404846,0.010128162801265717,0.1315365582704544,10.31787395477295,0.421834796667099,0.11575020104646683,0.5636778473854065
1781547267275336,116496731,-0.352107435464859,-0.0001981341774808243,0.006202065851539373,0.9359391927719116,0.010017354972660542,0.12866491079330444,10.28775405883789,0.4117945432662964,0.13211669027805328,0.6744527816772461
1781547267303982,116530065,-0.35212117433547974,-0.0002049249451374635,0.00620213383808732,0.9359340667724609,0.012470235116779804,0.1276920586824417,10.29952335357666,0.4144582748413086,0.17812992632389069,0.5944515466690063
1781547267365700,116563399,-0.35211068391799927,-0.0002153137029381469,0.006203241180628538,0.9359379410743713,0.027422357350587845,0.11847259849309921,10.284363746643066,0.38015007972717285,0.19480378925800323,0.4951511025428772
1781547267393462,116596733,-0.35210636258125305,-0.0002232981496490538,0.006185943726450205,0.9359397292137146,0.009587811306118965,0.12326471507549286,10.308771133422852,0.3733307123184204,0.1941954791545868,0.5281466245651245
1781547267423901,116613400,-0.35211020708084106,-0.0002280733606312424,0.006184975616633892,0.9359382390975952,0.015041528269648552,0.11428843438625336,10.301697731018066,0.38849979639053345,0.19398416578769684,0.5533559322357178
1781547267453612,116646734,-0.352096289396286,-0.0002173108805436641,0.006176878232508898,0.935943603515625,0.015560077503323555,0.12559282779693604,10.316213607788086,0.35360249876976013,0.08607787638902664,0.4748530685901642
1781547267483809,116680068,-0.35209494829177856,-0.00023421351215802133,0.0061564031057059765,0.9359441995620728,0.01913599669933319,0.14105258882045746,10.298375129699707,0.3597111105918884,0.25314950942993164,0.5536248683929443
1781547267514689,116746736,-0.3520995080471039,-0.0002486275334376842,0.006139874458312988,0.9359426498413086,0.01712973229587078,0.12426234036684036,10.309168815612793,0.3768204152584076,0.20611177384853363,0.5511531829833984
1781547267543772,116763403,-0.3520977199077606,-0.00024638191098347306,0.006143291015177965,0.9359433054924011,0.026885926723480225,0.12386193871498108,10.29488468170166,0.39987191557884216,0.13843025267124176,0.5435591340065002
1781547267604488,116796737,-0.3520890772342682,-0.00025994304451160133,0.006134045775979757,0.935946524143219,0.015606568194925785,0.12361875921487808,10.315573692321777,0.31683549284935,0.19288280606269836,0.5236708521842957
1781547267634046,116830071,-0.3520989716053009,-0.00025768426712602377,0.0061257872730493546,0.9359429478645325,0.01962980255484581,0.13022401928901672,10.340739250183105,0.3877826929092407,0.2048695683479309,0.618809163570404
1781547267664456,116863405,-0.35209956765174866,-0.0002620322338771075,0.006129094865173101,0.9359427094459534,0.015620873309671879,0.12475956976413727,10.299040794372559,0.4124349057674408,0.18103694915771484,0.6301940083503723
1781547267693752,116896739,-0.3520957827568054,-0.0002574342070147395,0.006134067662060261,0.9359440207481384,0.010049142874777317,0.1172817200422287,10.30068588256836,0.36108142137527466,0.15215861797332764,0.5091484189033508
1781547267725115,116913406,-0.3520898222923279,-0.0002563130692578852,0.0061404649168252945,0.9359461069107056,0.02208276279270649,0.1289364993572235,10.316102981567383,0.42188596725463867,0.13850706815719604,0.5186251401901245
1781547267755254,116980074,-0.3520834743976593,-0.0002581651206128299,0.006154617294669151,0.9359484910964966,0.022873785346746445,0.11647000163793564,10.308839797973633,0.42390942573547363,0.1053130254149437,0.592837929725647
1781547267784437,117013408,-0.3520972728729248,-0.0002520648995414376,0.006159793585538864,0.9359432458877563,0.003973166458308697,0.12080428004264832,10.312665939331055,0.3422688841819763,0.1577294021844864,0.5809023976325989
1781547267844479,117046742,-0.3520998954772949,-0.0002575024263933301,0.0061807530000805855,0.9359422326087952,0.019851526245474815,0.1276741772890091,10.312387466430664,0.5069329142570496,0.15261967480182648,0.5438792705535889
1781547267874495,117063409,-0.35210558772087097,-0.0002545393072068691,0.0061798254027962685,0.9359400272369385,0.002724748570472002,0.12032497674226761,10.30253791809082,0.370545357465744,0.1449999064207077,0.6019561290740967
1781547267904045,117096743,-0.35211455821990967,-0.000268132658675313,0.006185746751725674,0.935936689376831,0.016661548987030983,0.12346140295267105,10.301726341247559,0.42664992809295654,0.2189437448978424,0.6166449189186096
1781547267934156,117130077,-0.35211649537086487,-0.00026128036552108824,0.006182437762618065,0.935935914516449,0.020924115553498268,0.12139428406953812,10.304783821105957,0.3307751715183258,0.12157066911458969,0.5771180391311646
1781547267965000,117163411,-0.3521130084991455,-0.00028192714671604335,0.006197065114974976,0.9359370470046997,0.010260138660669327,0.13088203966617584,10.303017616271973,0.5446988344192505,0.18382875621318817,0.5556226372718811
1781547267994409,117213412,-0.35209789872169495,-0.00029861429356969893,0.0061957077123224735,0.9359429478645325,0.016357572749257088,0.14411400258541107,10.28773307800293,0.40694737434387207,0.22648029029369354,0.5113447904586792
1781547268026197,117246746,-0.35208263993263245,-0.000303500157315284,0.006180312018841505,0.9359486699104309,0.010542947798967361,0.12115493416786194,10.320645332336426,0.3409498631954193,0.23409366607666016,0.5836814045906067
1781547268084326,117280080,-0.352067232131958,-0.0002981473517138511,0.006211674772202969,0.9359543323516846,0.004223841708153486,0.13465863466262817,10.31147575378418,0.414368599653244,0.16409415006637573,0.5693767070770264
1781547268114454,117313414,-0.3520664572715759,-0.00029435649048537016,0.006211941130459309,0.9359544515609741,0.029060261324048042,0.12153740227222443,10.294927597045898,0.4365108013153076,0.10360977053642273,0.5187404155731201
1781547268143993,117346748,-0.35204845666885376,-0.00029493076726794243,0.006207807920873165,0.9359614253044128,0.018689259886741638,0.12702688574790955,10.3365478515625,0.35301342606544495,0.13215512037277222,0.4896443784236908
1781547268174727,117363415,-0.35203981399536133,-0.00029051973251625896,0.006208211649209261,0.9359645843505859,0.018142100423574448,0.13388247787952423,10.298311233520508,0.3755398094654083,0.13229599595069885,0.5056779384613037
1781547268204004,117396749,-0.35203999280929565,-0.0002927137538790703,0.006205348763614893,0.9359645247459412,0.016150152310729027,0.1356455385684967,10.307995796203613,0.41042426228523254,0.18947632610797882,0.5649328827857971
1781547268234835,117463417,-0.3520250916481018,-0.00032457493944093585,0.006191784515976906,0.9359702467918396,0.01378597877919674,0.14033383131027222,10.324545860290527,0.3992123007774353,0.1989850550889969,0.5186443328857422
1781547268264447,117496751,-0.35200783610343933,-0.00031448184745386243,0.006194656249135733,0.9359766244888306,0.014958737418055534,0.12954072654247284,10.312397956848145,0.38495245575904846,0.17573511600494385,0.4834204614162445
1781547268324182,117513418,-0.3520067036151886,-0.0003205671673640609,0.006195582449436188,0.9359771013259888,0.02082783170044422,0.1248561218380928,10.29898738861084,0.40443092584609985,0.19879937171936035,0.5370150208473206
1781547268354632,117546752,-0.3520066738128662,-0.00030498180422000587,0.006198194343596697,0.9359771609306335,0.02137141488492489,0.12607918679714203,10.300209999084473,0.41199949383735657,0.16250616312026978,0.6131359934806824
1781547268383658,117580086,-0.3520219027996063,-0.00029916045605205,0.006201962940394878,0.9359713792800903,0.011411677114665508,0.114874929189682,10.306382179260254,0.44332385063171387,0.1295810490846634,0.6058235764503479
1781547268413541,117613420,-0.35201355814933777,-0.0002977092517539859,0.0061948262155056,0.935974657535553,0.013149714097380638,0.13362856209278107,10.314075469970703,0.3969903886318207,0.19993911683559418,0.5612702965736389
1781547268444558,117646754,-0.352018266916275,-0.00029227507184259593,0.00619001779705286,0.9359728097915649,0.01056769210845232,0.1190340593457222,10.315205574035645,0.4217963218688965,0.18605703115463257,0.5616672039031982
1781547268473531,117696755,-0.3520177900791168,-0.0003002054581884295,0.006184697151184082,0.935973048210144,0.028033889830112457,0.12792809307575226,10.31417179107666,0.3242695927619934,0.19487421214580536,0.5774382948875427
1781547268504207,117730089,-0.35202476382255554,-0.0003075027489103377,0.0061949449591338634,0.9359703063964844,0.007667388301342726,0.1300845444202423,10.309926986694336,0.40452054142951965,0.1488673985004425,0.5435206890106201
1781547268567070,117763423,-0.3520192503929138,-0.00031372802914120257,0.006198273506015539,0.9359723925590515,0.01021722424775362,0.1313469409942627,10.308713912963867,0.3988473415374756,0.14342470467090607,0.6018919944763184
1781547268593782,117796757,-0.3520200252532959,-0.0003132767742499709,0.00619512377306819,0.9359721541404724,0.017080456018447876,0.1251245141029358,10.321516990661621,0.3282715380191803,0.12646910548210144,0.5190989971160889
1781547268623672,117813424,-0.3520311117172241,-0.00031555964960716665,0.006191565189510584,0.9359679818153381,0.02640671469271183,0.12372246384620667,10.292854309082031,0.36660102009773254,0.1857881247997284,0.6109845638275146
1781547268653749,117846758,-0.3520312011241913,-0.0003154969890601933,0.00619537616148591,0.9359679222106934,0.021428322419524193,0.13694360852241516,10.31686782836914,0.39973095059394836,0.16913986206054688,0.5375016331672668
1781547268683728,117880092,-0.3520360291004181,-0.0002991223009303212,0.006201140116900206,0.9359660744667053,0.0015484977047890425,0.11690979450941086,10.299727439880371,0.3955817222595215,0.12914563715457916,0.5765866637229919
1781547268714055,117946760,-0.352054625749588,-0.0002998024283442646,0.006208987906575203,0.9359590411186218,0.00843305978924036,0.1259470283985138,10.305103302001953,0.42227014899253845,0.184878870844841,0.5954375863075256
1781547268743835,117963427,-0.35206112265586853,-0.0003029762301594019,0.006199394818395376,0.9359566569328308,0.013832769356667995,0.13160085678100586,10.313899993896484,0.33006447553634644,0.20645758509635925,0.6084489226341248
1781547268804370,117996761,-0.35206079483032227,-0.00030256371246650815,0.006197769194841385,0.9359567761421204,0.0212283656001091,0.11829736083745956,10.312179565429688,0.3873792588710785,0.17579276859760284,0.4676878750324249
1781547268833796,118030095,-0.3520660400390625,-0.00031161148217506707,0.006193097680807114,0.9359548687934875,0.023638730868697166,0.13405054807662964,10.324335098266602,0.405967652797699,0.15510410070419312,0.5894442200660706
1781547268864389,118063429,-0.3520424962043762,-0.00031340509303845465,0.006196059286594391,0.9359636902809143,0.003243620041757822,0.12934784591197968,10.311443328857422,0.3687204122543335,0.11378441751003265,0.5003952980041504
1781547268893552,118096763,-0.352031946182251,-0.00032691561500541866,0.006194655317813158,0.9359676837921143,0.004606155212968588,0.13368578255176544,10.307004928588867,0.3910866975784302,0.15126217901706696,0.5345690250396729
1781547268927120,118113430,-0.3520262837409973,-0.0003291333850938827,0.006195706315338612,0.9359698295593262,0.01008877344429493,0.12313608825206757,10.341852188110352,0.3961068093776703,0.17399348318576813,0.5105443596839905
1781547268956958,118180098,-0.35202956199645996,-0.0003135917359031737,0.006218543276190758,0.9359683394432068,0.013793431222438812,0.12537109851837158,10.31808090209961,0.39668306708335876,0.1361250877380371,0.5482718348503113
1781547268984398,118213432,-0.3520258367061615,-0.0003192149451933801,0.0062350742518901825,0.9359696507453918,0.008625811897218227,0.12242430448532104,10.320666313171387,0.43569761514663696,0.19210803508758545,0.5619298219680786
1781547269043649,118246766,-0.35202738642692566,-0.00033268280094489455,0.006234321277588606,0.9359690546989441,0.013392574153840542,0.11950596421957016,10.30502700805664,0.41421493887901306,0.23898568749427795,0.5387950539588928
1781547269074332,118263433,-0.35202762484550476,-0.0003229064168408513,0.006231437437236309,0.9359689950942993,0.00812871940433979,0.13123607635498047,10.311843872070312,0.34189751744270325,0.10642717778682709,0.5375145077705383
1781547269103686,118296767,-0.3520343005657196,-0.0003374558291397989,0.006231227423995733,0.9359665513038635,0.015681985765695572,0.13876773416996002,10.305367469787598,0.40491753816604614,0.23081523180007935,0.541548490524292
1781547269133978,118330101,-0.35202911496162415,-0.00032239966094493866,0.0062289913184940815,0.9359684586524963,0.018363524228334427,0.10852345824241638,10.316017150878906,0.3816099762916565,0.20124538242816925,0.5437127947807312
1781547269165571,118363435,-0.35203203558921814,-0.0003124480717815459,0.006224007345736027,0.9359673261642456,0.032282423228025436,0.13133621215820312,10.326627731323242,0.3551904857158661,0.13266736268997192,0.5979476571083069
1781547269194346,118413436,-0.3520359992980957,-0.00031485813087783754,0.006228256039321423,0.9359660148620605,0.009713291190564632,0.12726305425167084,10.30807876586914,0.39919313788414,0.19153815507888794,0.5425857901573181
1781547269224467,118446770,-0.352021723985672,-0.0003231351147405803,0.006226641125977039,0.935971200466156,0.022311681881546974,0.12732353806495667,10.315980911254883,0.37780651450157166,0.23059751093387604,0.5038210153579712
1781547269284298,118480104,-0.3520251214504242,-0.00032033261959441006,0.006227900739759207,0.9359700083732605,0.021629229187965393,0.12900468707084656,10.311843872070312,0.3921240270137787,0.1939585655927658,0.5743711590766907
1781547269314206,118513438,-0.3520403206348419,-0.00031931535340845585,0.006222952157258987,0.9359644055366516,0.014601970091462135,0.1295911967754364,10.319181442260742,0.3459315001964569,0.21082451939582825,0.6352781653404236
1781547269343639,118546772,-0.352041095495224,-0.0003012701345141977,0.0062194629572331905,0.9359639883041382,0.012810486368834972,0.1357029527425766,10.313820838928223,0.3567144572734833,0.15034015476703644,0.4981862008571625
1781547269373657,118563439,-0.35203537344932556,-0.00030187764787115157,0.006226005032658577,0.9359660744667053,0.02563749998807907,0.12723422050476074,10.304787635803223,0.4279177486896515,0.15095484256744385,0.5320973992347717
1781547269405644,118596773,-0.35205239057540894,-0.00029071670724079013,0.006232454441487789,0.9359596967697144,0.021740086376667023,0.126565620303154,10.323906898498535,0.37860050797462463,0.09433797001838684,0.587241530418396
1781547269435413,118663441,-0.3520505726337433,-0.0002850151213351637,0.006233921740204096,0.9359602928161621,0.020284540951251984,0.13213738799095154,10.300325393676758,0.3609021008014679,0.1389680951833725,0.5624356865882874
1781547269464444,118696775,-0.35204067826271057,-0.00028409057995304465,0.006246066652238369,0.9359639883041382,0.021421480923891068,0.11776092648506165,10.306861877441406,0.39814305305480957,0.150609090924263,0.49490782618522644
1781547269526720,118713442,-0.35204651951789856,-0.0002782984229270369,0.0062406836077570915,0.9359618425369263,0.014168933033943176,0.12783868610858917,10.292353630065918,0.3358273208141327,0.13909617066383362,0.6004065275192261
1781547269553742,118746776,-0.35205334424972534,-0.0002767107216641307,0.006242221221327782,0.9359592199325562,0.024379005655646324,0.13030625879764557,10.311532020568848,0.37761440873146057,0.15455342829227448,0.6091660261154175
1781547269584164,118780110,-0.35205361247062683,-0.00027671048883348703,0.006241820752620697,0.9359591007232666,0.015070137567818165,0.12769563496112823,10.326105117797852,0.354998379945755,0.20928776264190674,0.5409850478172302
1781547269614672,118813444,-0.35204750299453735,-0.00028066011145710945,0.006254612468183041,0.9359614253044128,0.013918938115239143,0.12618304789066315,10.304094314575195,0.4170323610305786,0.20714910328388214,0.561820924282074
1781547269644370,118846778,-0.3520555794239044,-0.00028550621937029064,0.006239649374037981,0.9359584450721741,0.011894465424120426,0.111931711435318,10.307168960571289,0.3435494899749756,0.19070574641227722,0.5893546342849731
1781547269674239,118896779,-0.3520510792732239,-0.00030105505720712245,0.006247395183891058,0.9359599947929382,0.022194305434823036,0.1219881996512413,10.33260440826416,0.4312986135482788,0.24364717304706573,0.5787893533706665
1781547269703741,118930113,-0.3520638048648834,-0.00030582206090912223,0.00623786635696888,0.9359553456306458,0.024783115833997726,0.12813550233840942,10.307158470153809,0.31360188126564026,0.19534805417060852,0.5553985238075256
1781547269764221,118963447,-0.35206565260887146,-0.0003192200092598796,0.006247347686439753,0.9359546899795532,0.017119305208325386,0.11411319673061371,10.303732872009277,0.4738798141479492,0.1960972249507904,0.5577229261398315
1781547269794135,118996781,-0.3520648777484894,-0.00032858617487363517,0.006255891174077988,0.9359548687934875,0.02322031371295452,0.11752132326364517,10.321124076843262,0.3396436274051666,0.20489519834518433,0.5429315567016602
1781547269826134,119013448,-0.3520708680152893,-0.00031872058752924204,0.006256212946027517,0.9359526038169861,0.013750831596553326,0.12225629389286041,10.301977157592773,0.36283591389656067,0.09925560653209686,0.6002015471458435
1781547269854078,119046782,-0.352075457572937,-0.00030957080889493227,0.006267640274018049,0.935950756072998,0.01319652795791626,0.14119946956634521,10.301737785339355,0.38095688819885254,0.10080517828464508,0.5864475965499878
1781547269885607,119080116,-0.3520779609680176,-0.00031031688558869064,0.006264407653361559,0.9359499216079712,0.008250310085713863,0.13269874453544617,10.32654857635498,0.3691878616809845,0.19143572449684143,0.5564295053482056
1781547269914410,119146784,-0.3520652651786804,-0.0003246226697228849,0.0062478771433234215,0.9359548091888428,0.015385142527520657,0.12811057269573212,10.316668510437012,0.3532695174217224,0.11680030822753906,0.5851028561592102
1781547269943837,119163451,-0.352067768573761,-0.00032985283178277314,0.006241481751203537,0.9359538555145264,0.01804940588772297,0.13166537880897522,10.321965217590332,0.35608693957328796,0.2124253213405609,0.5564166903495789
1781547270006277,119196785,-0.35205379128456116,-0.000335079210344702,0.006240396294742823,0.9359591603279114,0.01974453404545784,0.1241481602191925,10.321407318115234,0.38716793060302734,0.17709259688854218,0.5200594067573547
1781547270035498,119230119,-0.35206499695777893,-0.00033590986276976764,0.006235756911337376,0.9359549283981323,0.027644082903862,0.13716542720794678,10.325154304504395,0.37259429693222046,0.17857812345027924,0.6100752949714661
1781547270063627,119263453,-0.3521006107330322,-0.0004192113992758095,0.006230620667338371,0.9359415769577026,0.023839307948946953,0.11400604248046875,10.317197799682617,0.3836333751678467,0.1702924221754074,0.5582095384597778
1781547270093592,119296787,-0.3520907461643219,-0.0004055503522977233,0.006226909346878529,0.9359452724456787,0.025748692452907562,0.11395227164030075,10.319342613220215,0.42137372493743896,0.15819042921066284,0.5307783484458923
1781547270123794,119313454,-0.3520878851413727,-0.0003993975988123566,0.006227509584277868,0.9359462857246399,0.017476925626397133,0.12457360327243805,10.287643432617188,0.37345239520072937,0.12146183103322983,0.5070482492446899
1781547270154102,119380122,-0.35210204124450684,-0.00040714911301620305,0.006241063121706247,0.9359409213066101,0.02636379934847355,0.13996201753616333,10.3138427734375,0.3661143183708191,0.22564145922660828,0.6077445149421692
1781547270183846,119413456,-0.35210341215133667,-0.0004234475491102785,0.006230362690985203,0.9359404444694519,0.012524177320301533,0.11692433059215546,10.309289932250977,0.36587101221084595,0.2979205250740051,0.5675325989723206
1781547270243669,119446790,-0.35211098194122314,-0.000426082726335153,0.006224095821380615,0.9359376430511475,0.00999549962580204,0.12416233867406845,10.30311393737793,0.3650897741317749,0.15758852660655975,0.6315131187438965
1781547270275443,119463457,-0.3521129786968231,-0.00043029841617681086,0.006226708646863699,0.9359368681907654,0.022819777950644493,0.11432777345180511,10.30712604522705,0.4116920828819275,0.18396960198879242,0.5661879181861877
1781547270305753,119496791,-0.3520963788032532,-0.00042948295595124364,0.006216714158654213,0.9359432458877563,0.02153591997921467,0.12675151228904724,10.299698829650879,0.33239519596099854,0.17686207592487335,0.5040642619132996
1781547270335620,119530125,-0.35208725929260254,-0.0004419202159624547,0.006229332182556391,0.935946524143219,0.011879853904247284,0.12995213270187378,10.314061164855957,0.4421711564064026,0.1709967702627182,0.48102569580078125
1781547270364027,119563459,-0.3520773947238922,-0.0004283795424271375,0.006229641381651163,0.9359502792358398,0.01619306579232216,0.12809258699417114,10.273019790649414,0.3789847195148468,0.06373079866170883,0.5202771425247192
1781547270393733,119613460,-0.3520800471305847,-0.00046028196811676025,0.006233422551304102,0.9359492659568787,0.022672835737466812,0.1256248503923416,10.31423282623291,0.37833157181739807,0.2349644899368286,0.5826184153556824
1781547270424405,119646794,-0.3520875871181488,-0.00046792361536063254,0.006233579013496637,0.9359463453292847,0.014848412945866585,0.1301882565021515,10.318263053894043,0.43342453241348267,0.21932797133922577,0.5770989656448364
1781547270484607,119680128,-0.35207685828208923,-0.0004639875842258334,0.006242795847356319,0.9359503388404846,0.02341672219336033,0.12979476153850555,10.321191787719727,0.36891886591911316,0.17339155077934265,0.5283834934234619
1781547270514510,119713462,-0.35207101702690125,-0.0004681443970184773,0.006244353484362364,0.9359524846076965,0.011869432404637337,0.13295981287956238,10.302967071533203,0.3941602110862732,0.14471814036369324,0.5887271165847778
1781547270543755,119746796,-0.35206055641174316,-0.0004619084356818348,0.006223449949175119,0.9359566569328308,0.019758544862270355,0.12629733979701996,10.327857971191406,0.346443772315979,0.1896556317806244,0.5735899806022644
1781547270574424,119763463,-0.3520488142967224,-0.0004676196549553424,0.006227470003068447,0.9359609484672546,0.0154563682153821,0.12406578660011292,10.32987117767334,0.4246393144130707,0.1903855800628662,0.517472505569458
1781547270604036,119796797,-0.35205239057540894,-0.0004606276052072644,0.006221153307706118,0.9359596371650696,0.012377253733575344,0.12184853851795197,10.296369552612305,0.3206646144390106,0.21142643690109253,0.5567496418952942
1781547270636306,119863465,-0.3520384728908539,-0.0004541475500445813,0.006205475889146328,0.9359651207923889,0.015892403200268745,0.1202642098069191,10.320895195007324,0.3304102122783661,0.12495794892311096,0.5523954629898071
1781547270664755,119896799,-0.3520476222038269,-0.00046078715240582824,0.006197699811309576,0.9359616637229919,0.024421919137239456,0.12431969493627548,10.307687759399414,0.35351285338401794,0.19623808562755585,0.6459330320358276
1781547270724237,119913466,-0.3520570397377014,-0.00045347950072027743,0.006192127242684364,0.935958206653595,0.017895033583045006,0.12505985796451569,10.320566177368164,0.33160120248794556,0.13063117861747742,0.6492114067077637
1781547270753959,119946800,-0.3520704209804535,-0.00046009631478227675,0.006179738324135542,0.9359531998634338,0.015484977513551712,0.12667283415794373,10.315874099731445,0.3594038188457489,0.19858165085315704,0.6048375368118286
1781547270784193,119980134,-0.3520790934562683,-0.0004675320815294981,0.006182748358696699,0.9359498620033264,0.004387672059237957,0.12615777552127838,10.283366203308105,0.38233351707458496,0.14170224964618683,0.6077893376350403
1781547270813819,120013468,-0.35208451747894287,-0.0004542875103652477,0.006196970120072365,0.9359477162361145,0.019458143040537834,0.12763483822345734,10.313227653503418,0.4385598301887512,0.09912754595279694,0.5857944488525391
1781547270843694,120046802,-0.35207539796829224,-0.0004750584193971008,0.006183534860610962,0.9359513521194458,0.015242090448737144,0.12482772022485733,10.305270195007324,0.3538970649242401,0.2704637050628662,0.5796858072280884
1781547270874956,120096803,-0.3520737290382385,-0.0005014142952859402,0.006155453622341156,0.9359521269798279,0.01996215060353279,0.12522070109844208,10.285404205322266,0.316829115152359,0.2627478539943695,0.5214873552322388
1781547270904810,120130137,-0.35207366943359375,-0.0005008443258702755,0.006167354062199593,0.9359520077705383,0.022079503163695335,0.13830624520778656,10.300929069519043,0.4303509593009949,0.19453483819961548,0.5199569463729858
1781547270963698,120163471,-0.352059930562973,-0.0004989510634914041,0.006154957693070173,0.9359573125839233,0.008972704410552979,0.13085342943668365,10.310806274414062,0.32394298911094666,0.18321403861045837,0.468526691198349
1781547270996068,120196805,-0.3520696461200714,-0.0004959090729244053,0.006152359303086996,0.935953676700592,0.02153949625790119,0.10979671776294708,10.307211875915527,0.3312170207500458,0.18704313039779663,0.5611934065818787
1781547271023832,120213472,-0.35207653045654297,-0.0004962992388755083,0.006149641703814268,0.9359511137008667,0.007713878992944956,0.13256999850273132,10.326313018798828,0.3685987591743469,0.1728408932685852,0.5962188243865967
1781547271054049,120246806,-0.35208457708358765,-0.0004940166254527867,0.006158172152936459,0.9359480738639832,0.02555915340781212,0.13917168974876404,10.282833099365234,0.3902927041053772,0.1648625284433365,0.6073858737945557
1781547271084786,120280140,-0.3520846664905548,-0.000494952779263258,0.0061629051342606544,0.9359480142593384,0.022687111049890518,0.1120818704366684,10.314650535583496,0.40892595052719116,0.08569368720054626,0.5911090970039368
1781547271114514,120346808,-0.35208946466445923,-0.0005286400555633008,0.00617564283311367,0.9359460473060608,0.017774049192667007,0.13151519000530243,10.329092025756836,0.38237836956977844,0.22911199927330017,0.536541223526001
1781547271143851,120363475,-0.3520928621292114,-0.0005191130912862718,0.006175434682518244,0.9359447360038757,0.005518087651580572,0.12509214878082275,10.31058120727539,0.36078688502311707,0.1031743586063385,0.5954375863075256
1781547271204505,120396809,-0.3521031141281128,-0.0005132487858645618,0.006161930505186319,0.9359409809112549,0.016117965802550316,0.11418114602565765,10.290511131286621,0.4092845320701599,0.1662071943283081,0.6247513294219971
1781547271234776,120430143,-0.3521222472190857,-0.0005119242705404758,0.006149996072053909,0.9359338283538818,0.008868681266903877,0.12358641624450684,10.315577507019043,0.35823842883110046,0.18571127951145172,0.6058107614517212
1781547271266761,120463477,-0.3521416485309601,-0.0005166944465599954,0.006150033324956894,0.935926616191864,0.022655272856354713,0.1165664792060852,10.320215225219727,0.3743872046470642,0.1842513382434845,0.678064227104187
1781547271293753,120496811,-0.3521558940410614,-0.000509310164488852,0.006136368960142136,0.9359213709831238,0.013081766664981842,0.1269124448299408,10.292842864990234,0.3275095820426941,0.15633991360664368,0.5782963633537292
1781547271324558,120513478,-0.3521590530872345,-0.0005121942376717925,0.006149256136268377,0.9359200596809387,0.0014237342402338982,0.12756702303886414,10.326231002807617,0.475147545337677,0.15139025449752808,0.5879843235015869
1781547271354839,120580146,-0.3521716594696045,-0.0005111750797368586,0.0061377277597785,0.9359153509140015,0.017108576372265816,0.12317530810832977,10.326298713684082,0.33806201815605164,0.16771194338798523,0.5884261727333069
1781547271385046,120613480,-0.3521744906902313,-0.0005075048538856208,0.00614792900159955,0.9359142184257507,0.023967741057276726,0.12446273863315582,10.305316925048828,0.47415509819984436,0.1545214056968689,0.5752356052398682
1781547271444750,120646814,-0.35217198729515076,-0.0004963535466231406,0.006153441034257412,0.9359151124954224,0.006347768008708954,0.13444393873214722,10.317594528198242,0.4143558442592621,0.14812463521957397,0.5521265268325806
1781547271474431,120663481,-0.35216066241264343,-0.0005002483376301825,0.006141782272607088,0.935919463634491,0.004148679319769144,0.12446648627519608,10.301773071289062,0.3200370669364929,0.21825219690799713,0.6043636202812195
