host_t_us,sensor_t_us,qw,qx,qy,qz,ax,ay,az,gx,gy,gz
1781547253654741,102534595,-0.7314002513885498,-0.05515816807746887,-0.13548468053340912,0.6660750508308411,-2.746211290359497,-0.9103803634643555,9.412579536437988,7.322206974029541,-8.524588584899902,-3.733334541320801
1781547253656069,102734599,-0.7300412058830261,-0.05544452369213104,-0.13396769762039185,0.6678466796875,-2.6801340579986572,-0.990456759929657,9.342828750610352,5.452338695526123,-9.923479080200195,5.189372539520264
1781547253657856,102751266,-0.7306118011474609,-0.055137526243925095,-0.13265648484230042,0.6675096154212952,-2.5348007678985596,-0.9671013951301575,9.33542251586914,4.656665325164795,-8.357183456420898,4.6120991706848145
1781547253894160,102767933,-0.7310158610343933,-0.054881297051906586,-0.13129878044128418,0.6673567891120911,-2.5951149463653564,-0.928199291229248,9.371824264526367,5.356148719787598,-8.27542781829834,2.9865119457244873
1781547253896114,102984604,-0.7310327887535095,-0.054070357233285904,-0.11683636158704758,0.6700876951217651,-2.47707200050354,-0.8036126494407654,9.267119407653809,6.503597259521484,-5.468799114227295,1.2597674131393433
1781547253898264,103001271,-0.7312221527099609,-0.054068971425294876,-0.11517884582281113,0.6701681613922119,-2.4154350757598877,-0.7031254768371582,9.45708179473877,8.329164505004883,-8.488539695739746,1.165839433670044
1781547254134500,103017938,-0.7311602234840393,-0.054414909332990646,-0.11388297379016876,0.6704292297363281,-2.3494348526000977,-0.7103866338729858,9.451249122619629,8.644909858703613,-4.93809175491333,-0.7576623558998108
1781547254136869,103217942,-0.731874406337738,-0.06876840442419052,-0.10169556736946106,0.6702905297279358,-2.2659759521484375,-0.38034772872924805,9.53940486907959,9.208548545837402,-0.8789960145950317,-0.13978774845600128
1781547254138498,103234609,-0.7317606210708618,-0.06947387754917145,-0.10107909888029099,0.6704353094100952,-2.4066286087036133,-0.3146871328353882,9.451644897460938,7.251051902770996,0.19087226688861847,-0.3851894438266754
1781547254374117,103251276,-0.7315633893013,-0.0704713687300682,-0.10028961300849915,0.6706650853157043,-2.3396823406219482,-0.3950391709804535,9.384349822998047,9.616681098937988,0.6837760210037231,-0.9115049839019775
1781547254375227,103467947,-0.7256482243537903,-0.08430327475070953,-0.08055434376001358,0.6781143546104431,-2.2147345542907715,0.10100997239351273,9.454615592956543,0.5030205845832825,0.1990106701850891,-0.3227519989013672
1781547254377558,103484614,-0.725641131401062,-0.08445694297552109,-0.08040910959243774,0.6781200766563416,-2.3358848094940186,0.1634736806154251,9.459673881530762,2.156301259994507,0.02278890088200569,0.19024474918842316
1781547254614933,103501281,-0.7255982756614685,-0.08470813184976578,-0.08028610795736313,0.6781492233276367,-2.192949056625366,0.035238221287727356,9.428027153015137,2.5728914737701416,0.5944771766662598,-0.05186571553349495
1781547254618327,103701285,-0.7269408106803894,-0.0841212272644043,-0.07929883152246475,0.6768994927406311,-2.2277772426605225,0.14787615835666656,9.491671562194824,-0.1586066335439682,0.1321423053741455,1.0574394464492798
1781547254618872,103717952,-0.7270410060882568,-0.08410505205392838,-0.0796026960015297,0.6767581701278687,-2.233553409576416,0.16479560732841492,9.46401309967041,-0.9250282049179077,1.500411033630371,1.072281837463379
1781547254856580,103734619,-0.7271657586097717,-0.08424454182386398,-0.07928110659122467,0.6766446232795715,-2.1868345737457275,0.1481170952320099,9.416191101074219,2.7643463611602783,-0.9311624765396118,1.4936367273330688
1781547254857104,103934623,-0.7264869213104248,-0.08533919602632523,-0.07448285073041916,0.6777811050415039,-2.2828915119171143,0.33665230870246887,9.3094482421875,-0.12520769238471985,-6.469935417175293,-1.0095247030258179
1781547254858028,103951290,-0.7282981276512146,-0.043749649077653885,-0.06228039413690567,0.6810210347175598,-3.073592185974121,1.3786320686340332,7.455968379974365,-149.616455078125,-257.6364440917969,-21.804723739624023
1781547255095786,103967957,-0.7283387780189514,0.005413806065917015,0.007514698896557093,0.6851551532745361,-0.6412098407745361,1.366480827331543,13.844659805297852,83.18314361572266,-581.6241455078125,-20.510557174682617
1781547255098056,104184628,-0.7226717472076416,0.006178244948387146,-0.00014574221859220415,0.6911641359329224,0.10956425964832306,-0.09317450225353241,9.740901947021484,0.7619073390960693,-0.02184763178229332,0.12187162786722183
1781547255099770,104201295,-0.7226678133010864,0.00618019700050354,-0.00014476360229309648,0.6911683082580566,0.09375385195016861,-0.08748118579387665,9.756905555725098,0.6997452974319458,0.015835050493478775,0.04357359930872917
1781547255334190,104217962,-0.7226684093475342,0.006183465011417866,-0.00013818530715070665,0.6911676526069641,0.0873773843050003,-0.08040029555559158,9.725349426269531,0.7200818657875061,-0.018415531143546104,0.08835741877555847
1781547255336375,104417966,-0.7226616144180298,0.00614608870819211,-0.00015837213140912354,0.6911749839782715,0.10057368129491806,-0.10419637709856033,9.750672340393066,0.7063406109809875,0.04649345204234123,-0.01573900319635868
1781547255338036,104434633,-0.7226638197898865,0.006143766921013594,-0.00016723005683161318,0.6911728978157043,0.09812755137681961,-0.0843341201543808,9.733338356018066,0.6744655966758728,0.085117407143116,0.1042884960770607
1781547255574406,104451300,-0.722662627696991,0.006137306801974773,-0.00017440621741116047,0.6911741495132446,0.10132104158401489,-0.08274272084236145,9.732752799987793,0.7028828859329224,0.0966431200504303,0.07209333777427673
1781547255576367,104667971,-0.7226670384407043,0.006148922257125378,-0.0001475593016948551,0.6911693215370178,0.09034930169582367,-0.08349728584289551,9.764293670654297,0.7199025750160217,-0.03777873143553734,0.12792903184890747
1781547255579218,104684638,-0.7226662635803223,0.006154259666800499,-0.00014150285278446972,0.6911700367927551,0.08460225909948349,-0.07849059998989105,9.749428749084473,0.707006573677063,-0.024844318628311157,0.07622980326414108
1781547255815187,104701305,-0.7226735949516296,0.006152610294520855,-0.00014202806050889194,0.6911625266075134,0.09681866317987442,-0.08935154229402542,9.753954887390137,0.7107459306716919,0.0407433956861496,0.15505287051200867
1781547255816993,104901309,-0.7226753234863281,0.0061584897339344025,-0.00012592109851539135,0.6911606788635254,0.10362060368061066,-0.07650937885046005,9.757670402526855,0.7069041132926941,0.023646924644708633,0.05862106755375862
1781547255819064,104917976,-0.7226694226264954,0.006154042202979326,-0.00013481348287314177,0.6911669969558716,0.0870484858751297,-0.082717664539814,9.739012718200684,0.684275209903717,0.09655345976352692,0.024338465183973312
1781547256054778,104934643,-0.7226726412773132,0.0061554983258247375,-0.0001356174616375938,0.6911634802818298,0.09429754316806793,-0.09108597785234451,9.743936538696289,0.6937135457992554,0.027924245223402977,0.11583983898162842
1781547256056215,105134647,-0.7403870224952698,0.005915103945881128,0.0001438457693438977,0.6721554398536682,0.16982720792293549,-0.056937139481306076,9.724465370178223,1.195021390914917,0.7127202153205872,28.515830993652344
1781547256057715,105151314,-0.7424177527427673,0.005979632027447224,0.0001676172250881791,0.6699110269546509,0.11768551915884018,-0.0036773248575627804,9.755034446716309,0.5707094073295593,-0.4774342179298401,20.891626358032227
1781547256294131,105167981,-0.7438398599624634,0.006009720265865326,0.0001939872745424509,0.6683313846588135,0.1302710920572281,-0.017493437975645065,9.723932266235352,0.732542872428894,-0.3052779734134674,14.694817543029785
1781547256295246,105384652,-0.7440247535705566,0.005994501989334822,0.00017755974840838462,0.6681256294250488,0.09772701561450958,-0.07220005244016647,9.748430252075195,0.7010388374328613,0.0913412943482399,0.06731657683849335
1781547256296372,105401319,-0.7440207004547119,0.005994341801851988,0.00017924430721905082,0.6681301593780518,0.11250390857458115,-0.08860769122838974,9.724730491638184,0.7129230499267578,0.02406953275203705,0.05389551818370819
1781547256535652,105417986,-0.7440180778503418,0.0060006254352629185,0.00016267092723865062,0.6681329011917114,0.0913291797041893,-0.08698409050703049,9.742908477783203,0.5959371328353882,0.08808848261833191,0.047517962753772736
1781547256537201,105617990,-0.7440117001533508,0.005988527555018663,0.00013492643483914435,0.6681402325630188,0.10078110545873642,-0.08390498161315918,9.727760314941406,0.688027560710907,0.037938810884952545,-0.006211079191416502
1781547256539673,105634657,-0.7440192699432373,0.006002573296427727,0.00014217682473827153,0.6681315898895264,0.101997010409832,-0.08635110408067703,9.745776176452637,0.66602623462677,-0.06948725134134293,0.14517918229103088
1781547256774491,105651324,-0.7440224885940552,0.006000190507620573,0.00013600580859929323,0.6681280136108398,0.08757417649030685,-0.0750395655632019,9.747718811035156,0.6872591376304626,0.07587121427059174,-0.013280184008181095
1781547256776118,105867995,-0.7440448999404907,0.0059701018035411835,0.00011302481289021671,0.6681033372879028,0.09981194883584976,-0.06940345466136932,9.733342170715332,0.6970815658569336,0.047005701810121536,0.05034816265106201
1781547256778144,105884662,-0.7440433502197266,0.005978148430585861,0.00012120854808017612,0.6681049466133118,0.08017860352993011,-0.08390496671199799,9.762311935424805,0.7005009055137634,-0.04574427753686905,0.04056411236524582
1781547257015845,105901329,-0.7440407872200012,0.005980776622891426,0.00012716058699879795,0.6681077480316162,0.07942041009664536,-0.09089645743370056,9.748387336730957,0.7181224226951599,-0.009617568925023079,0.05461267754435539
1781547257016956,106101333,-0.7440285086631775,0.005999162793159485,0.00014122697757557034,0.668121337890625,0.0964396744966507,-0.0775822326540947,9.719779968261719,0.7220284342765808,-0.023371588438749313,0.09158461540937424
1781547257018028,106118000,-0.7440325617790222,0.005997457541525364,0.0001447821850888431,0.6681168079376221,0.09230203926563263,-0.08907615393400192,9.731091499328613,0.729507327079773,0.022558387368917465,0.12486831843852997
1781547257254915,106134667,-0.7440341114997864,0.00598882045596838,0.00014358562475536019,0.6681152582168579,0.08993446081876755,-0.07066943496465683,9.724348068237305,0.7430948615074158,0.07875265181064606,0.09762921184301376
1781547257256232,106334671,-0.7440415620803833,0.006005014758557081,0.00012734983465634286,0.6681067943572998,0.10221157968044281,-0.060698967427015305,9.756437301635742,0.6875025033950806,-0.03798363730311394,0.10227791219949722
1781547257257377,106351338,-0.7440508604049683,0.006000508088618517,0.00012611501733772457,0.6680963635444641,0.0884789451956749,-0.08148030936717987,9.744528770446777,0.7219899892807007,0.05991451442241669,0.17823238670825958
1781547257494148,106368005,-0.7440531849861145,0.0060019525699317455,0.00012924728798680007,0.668093740940094,0.09004522860050201,-0.07442445307970047,9.746578216552734,0.7113351225852966,0.010610060766339302,0.10152233392000198
1781547257496438,106584676,-0.744072437286377,0.006016986910253763,0.00011270024697296321,0.6680723428726196,0.09386828541755676,-0.07764661312103271,9.746788024902344,0.7374728918075562,0.03129231557250023,0.10672171413898468
1781547257497656,106601343,-0.7440689206123352,0.0060195778496563435,0.00011514682410052046,0.66807621717453,0.09682223945856094,-0.08544274419546127,9.742690086364746,0.7019736766815186,0.009431877173483372,0.04708254709839821
1781547257734964,106618010,-0.7440694570541382,0.0060159191489219666,0.00010462001955602318,0.6680755615234375,0.09295635670423508,-0.08496353030204773,9.765327453613281,0.6745680570602417,0.10423728823661804,0.0893050879240036
1781547257736425,106818014,-0.7440927624702454,0.005966321099549532,0.00013969340943731368,0.6680501103401184,0.1203857958316803,-0.07069089263677597,9.73369312286377,0.7288413047790527,0.007997565902769566,0.06872527301311493
1781547257737695,106834681,-0.7440932393074036,0.005960746668279171,0.00013313247472979128,0.6680496335029602,0.0927310585975647,-0.08448432385921478,9.711273193359375,0.7024345993995667,0.09315978735685349,0.08689747750759125
1781547257976505,106851348,-0.7440947890281677,0.0059625692665576935,0.00013816964928992093,0.6680480241775513,0.0717172622680664,-0.0803573802113533,9.753558158874512,0.718083918094635,-0.00034577143378555775,0.10781025141477585
1781547257977743,107068019,-0.7440643906593323,0.005966358818113804,0.0001257791736861691,0.6680817604064941,0.09046369045972824,-0.0817592591047287,9.72747802734375,0.7179943323135376,0.010546027682721615,0.0508476123213768
1781547257978932,107084686,-0.7440645098686218,0.005980371497571468,0.00012594697182066739,0.6680814027786255,0.07389874756336212,-0.09549188613891602,9.72670841217041,0.6331523656845093,-0.030991366133093834,0.08575772494077682
1781547258216021,107101353,-0.7440642714500427,0.00599276926368475,0.00012505156337283552,0.668081521987915,0.07340865582227707,-0.08981644362211227,9.751849174499512,0.6365267634391785,-0.018133793026208878,0.08399685472249985
1781547258216766,107301357,-0.744059681892395,0.006009323056787252,0.00012468051863834262,0.6680865287780762,0.08649780601263046,-0.08034306019544601,9.72785472869873,0.7178150415420532,0.01187788974493742,0.08648768812417984
1781547258218530,107318024,-0.7440557479858398,0.006012157071381807,0.00013095384929329157,0.6680908799171448,0.09112176299095154,-0.07587281614542007,9.744134902954102,0.7181608080863953,-0.010462787002325058,0.044303566217422485
1781547258454425,107334691,-0.7440659403800964,0.006009190808981657,0.00013008451787754893,0.6680794954299927,0.0970296561717987,-0.0898808166384697,9.75208854675293,0.7154074311256409,0.05234595388174057,0.161507248878479
1781547258456178,107534695,-0.7440540790557861,0.006011733785271645,0.000158478447701782,0.6680927276611328,0.09021340310573578,-0.07609453797340393,9.750747680664062,0.730941653251648,0.007638988085091114,0.10645278543233871
1781547258458977,107551362,-0.7440510988235474,0.00600994611158967,0.000163401011377573,0.6680960059165955,0.08775297552347183,-0.07843337953090668,9.745783805847168,0.735705554485321,0.01776880957186222,0.06202755123376846
1781547258694209,107568029,-0.7440531849861145,0.0060110692866146564,0.00017541373381391168,0.668093740940094,0.08855404704809189,-0.08456657081842422,9.733613967895508,0.7533911466598511,-0.03197745606303215,0.10172723978757858
1781547258695626,107784700,-0.7440783381462097,0.006045022513717413,0.0001525615225546062,0.6680653691291809,0.09599591046571732,-0.09494830667972565,9.740662574768066,0.617963969707489,-0.009323022328317165,0.13483163714408875
1781547258697377,107801367,-0.7440780401229858,0.006046603433787823,0.0001557700161356479,0.6680658459663391,0.10383518040180206,-0.08901894837617874,9.744792938232422,0.710579514503479,0.01135282963514328,0.06852037459611893
1781547258935116,107818034,-0.7440738081932068,0.006046890281140804,0.00015484723553527147,0.6680704355239868,0.09015260636806488,-0.08583970367908478,9.758174896240234,0.6981189250946045,0.03851509466767311,0.043547987937927246
1781547258936317,108018038,-0.7440869212150574,0.006090822629630566,0.00015265413094311953,0.6680554747581482,0.09139355272054672,-0.09296350926160812,9.716226577758789,0.7031774520874023,-0.016071969643235207,0.001824904466047883
1781547258938603,108034705,-0.7440841197967529,0.006081078201532364,0.00015193436411209404,0.6680588126182556,0.08861126750707626,-0.08011061698198318,9.740797996520996,0.7503688335418701,0.08377273380756378,0.05014325678348541
1781547259175781,108051372,-0.7440915703773499,0.006079230923205614,0.0001427375100320205,0.6680504083633423,0.10116375237703323,-0.08308602124452591,9.74208927154541,0.6708285808563232,0.09098271280527115,0.08912578225135803
1781547259176540,108268043,-0.7440605163574219,0.006063784006983042,0.00014557104441337287,0.6680851578712463,0.09928624331951141,-0.07889113575220108,9.738706588745117,0.731402575969696,0.006704123690724373,0.07027484476566315
1781547259178251,108284710,-0.7440658211708069,0.006071276497095823,0.00014351159916259348,0.6680790781974792,0.10112445056438446,-0.0844092071056366,9.73831558227539,0.655569851398468,0.012089192867279053,0.04168466478586197
1781547259414466,108301377,-0.7440682053565979,0.00606788694858551,0.0001495013857493177,0.6680765151977539,0.09982625395059586,-0.08536048978567123,9.73679256439209,0.7486399412155151,0.020445337519049644,0.0796106681227684
1781547259418187,108501381,-0.7440744638442993,0.0060800425708293915,0.00013704955927096307,0.6680694222450256,0.10083474218845367,-0.08856835216283798,9.739503860473633,0.6801131963729858,0.05065552145242691,0.019805021584033966
1781547259419298,108518048,-0.7440745830535889,0.006095665041357279,0.00013764049799647182,0.6680691838264465,0.09892862290143967,-0.08555718511343002,9.733806610107422,0.6267491579055786,-0.03917462006211281,0.09679678827524185
1781547259654587,108534715,-0.7440671920776367,0.00608854042366147,0.0001362223702017218,0.6680775284767151,0.09351783245801926,-0.08770290017127991,9.718055725097656,0.73356693983078,0.07601208239793777,0.013862872496247292
1781547259657067,108734719,-0.7440298795700073,0.006070651579648256,0.00014400124200619757,0.6681191325187683,0.09289562702178955,-0.0781150758266449,9.7233304977417,0.7046501636505127,0.057084307074546814,0.07395027577877045
1781547259658070,108751386,-0.744035542011261,0.006074553821235895,0.0001436661259504035,0.6681128740310669,0.08345437049865723,-0.08951246738433838,9.749131202697754,0.6824824213981628,0.019561700522899628,0.12718626856803894
1781547259894406,108768053,-0.7440422773361206,0.006075046490877867,0.00014080028631724417,0.66810542345047,0.11230363696813583,-0.07790767401456833,9.746444702148438,0.6888086795806885,0.047697246074676514,0.18481484055519104
1781547259899164,108984724,-0.7441189289093018,0.006057120859622955,0.00022861917386762798,0.6680201888084412,0.11153832823038101,-0.06758316606283188,9.751544952392578,0.6354061961174011,0.01735900528728962,0.12335716933012009
1781547259899629,109001391,-0.744127631187439,0.006055752746760845,0.00023375771706923842,0.6680104732513428,0.09747668355703354,-0.084044449031353,9.756641387939453,0.7343993186950684,0.01546366699039936,0.15063469111919403
1781547260134564,109018058,-0.7441279292106628,0.006056402809917927,0.0002438772498862818,0.6680101752281189,0.09444763511419296,-0.09072480350732803,9.73586654663086,0.7470264434814453,-0.01935039460659027,0.11486656218767166
1781547260136193,109218062,-0.7441478967666626,0.006060727871954441,0.00021911760268267244,0.6679878830909729,0.10913154482841492,-0.08572526276111603,9.729984283447266,0.7358720302581787,0.06636890023946762,0.02363411709666252
1781547260138511,109234729,-0.7441467046737671,0.006060153711587191,0.0002168881765101105,0.667989194393158,0.1046898365020752,-0.09337478131055832,9.739862442016602,0.6960826516151428,0.05000239238142967,0.053421683609485626
1781547260375963,109251396,-0.7441561222076416,0.0060679423622787,0.00021865326561965048,0.6679786443710327,0.1031307727098465,-0.06946424394845963,9.75977611541748,0.671737790107727,-0.008900412358343601,0.1179528757929802
1781547260377724,109468067,-0.7441527843475342,0.006075716577470303,0.00019198836525902152,0.667982280254364,0.09300991892814636,-0.08408022671937943,9.758279800415039,0.7583023905754089,0.11092859506607056,0.08166609704494476
1781547260379469,109484734,-0.744154155254364,0.006080949679017067,0.00019186839926987886,0.6679807305335999,0.08676594495773315,-0.08675163984298706,9.744850158691406,0.6760792136192322,0.012620656751096249,0.0669580027461052
1781547260614832,109501401,-0.7441432476043701,0.006066278088837862,0.00018017724505625665,0.667992889881134,0.08455230295658112,-0.07847269624471664,9.731080055236816,0.7250635027885437,0.1629543900489807,0.03827177360653877
1781547260616207,109701405,-0.7441624402999878,0.006044831592589617,0.00019103774684481323,0.6679719090461731,0.08324695378541946,-0.09524155408143997,9.731718063354492,0.7214008569717407,0.0820566788315773,0.07993082702159882
1781547260617963,109718072,-0.744164228439331,0.006041116546839476,0.00018945802003145218,0.6679698824882507,0.09387543797492981,-0.08557149022817612,9.747940063476562,0.715100109577179,0.0612463653087616,0.06417901813983917
1781547260855558,109734739,-0.7441579103469849,0.006032865960150957,0.00019374099792912602,0.667976975440979,0.09084995836019516,-0.09597110748291016,9.760056495666504,0.7652114629745483,0.052166663110256195,0.014080580323934555
1781547260857336,109934743,-0.7441417574882507,0.0060753170400857925,0.0002029050374403596,0.6679945588111877,0.09763403236865997,-0.07850490510463715,9.740791320800781,0.6221900582313538,-0.025932857766747475,0.10012643784284592
1781547260859899,109951410,-0.7441450953483582,0.006078953854739666,0.00020193136879242957,0.6679908633232117,0.08421610295772552,-0.07139898091554642,9.71865463256836,0.6807278990745544,0.024005502462387085,0.12474024295806885
1781547261094558,109968077,-0.744140625,0.006085837725549936,0.000206702810828574,0.6679957509040833,0.08481333404779434,-0.091436468064785,9.750922203063965,0.6899356842041016,-0.01978580839931965,0.02593925967812538
1781547261097319,110184748,-0.744147539138794,0.006084030494093895,0.0002069014881271869,0.6679880619049072,0.0942329689860344,-0.07334800809621811,9.743123054504395,0.6851204633712769,-0.047934167087078094,0.10267491638660431
1781547261099252,110201415,-0.744150698184967,0.006076321005821228,0.00021042673324700445,0.667984664440155,0.08842530101537704,-0.08196666836738586,9.74764347076416,0.759282112121582,0.0532936230301857,0.1110246479511261
1781547261335506,110218082,-0.7441471815109253,0.006081891246140003,0.00021594250574707985,0.6679885387420654,0.09435107558965683,-0.07246111333370209,9.729622840881348,0.700129508972168,-0.017506279051303864,0.03622275963425636
1781547261336756,110418086,-0.7441452145576477,0.006055131554603577,0.00022820377489551902,0.6679908633232117,0.08703773468732834,-0.07990320026874542,9.74194622039795,0.7278041243553162,-0.017659958451986313,0.18147237598896027
1781547261338026,110434753,-0.7441482543945312,0.006042827386409044,0.0002293246507178992,0.6679875254631042,0.09728345274925232,-0.09685444086790085,9.74075984954834,0.7715761065483093,0.08671819418668747,0.10697784274816513
1781547261574619,110451420,-0.7441452145576477,0.006043328437954187,0.00024024839513003826,0.6679909825325012,0.09839576482772827,-0.08838596194982529,9.75686264038086,0.750817060470581,-0.02198849990963936,0.046749573200941086
1781547261576858,110668091,-0.7441261410713196,0.0060036079958081245,0.00024164162459783256,0.6680127382278442,0.07978522032499313,-0.07581916451454163,9.742774963378906,0.737882673740387,0.021457036957144737,0.03977011889219284
1781547261578349,110684758,-0.744118332862854,0.005998074077069759,0.00024484226014465094,0.6680213212966919,0.09490183740854263,-0.08462736010551453,9.739359855651855,0.7462323904037476,0.04528965428471565,0.025298940017819405
1781547261815363,110701425,-0.7441168427467346,0.005995997227728367,0.0002500229747965932,0.6680229902267456,0.07815086096525192,-0.07083393633365631,9.754152297973633,0.7378442287445068,0.01912628300487995,0.07754884660243988
1781547261817353,110901429,-0.7441736459732056,0.006021683104336262,0.0002315417950740084,0.6679595708847046,0.09043870866298676,-0.07497518509626389,9.749871253967285,0.7278040647506714,0.02824440412223339,0.03883525729179382
1781547261818793,110918096,-0.7441872954368591,0.006023540627211332,0.0002356134937144816,0.6679443717002869,0.08646918088197708,-0.07406681776046753,9.753606796264648,0.712013840675354,0.007600568234920502,0.0704285129904747
1781547262055518,110934763,-0.7441889643669128,0.006025244016200304,0.00023435315233655274,0.667942464351654,0.09694740176200867,-0.07822953164577484,9.752270698547363,0.6887958645820618,0.034980542957782745,0.07656276226043701
1781547262057116,111134767,-0.7441589832305908,0.006042630411684513,0.0002392708556726575,0.6679757237434387,0.08531399816274643,-0.08740608394145966,9.734396934509277,0.7432229518890381,-0.07167713344097137,0.055176157504320145
1781547262058582,111151434,-0.7441602349281311,0.006039727479219437,0.0002454424975439906,0.6679743528366089,0.08771352469921112,-0.058174170553684235,9.739350318908691,0.7467958331108093,0.017794422805309296,0.11280471086502075
1781547262294503,111168101,-0.744157075881958,0.0060358368791639805,0.00024753407342359424,0.6679778099060059,0.08720573037862778,-0.08423757553100586,9.741875648498535,0.7330034971237183,0.04327906295657158,0.0819670557975769
1781547262296177,111384772,-0.7441714406013489,0.00605861796066165,0.0002587453054729849,0.6679616570472717,0.08389782160520554,-0.07442445307970047,9.731417655944824,0.6181817054748535,0.0013510697754099965,0.09442760795354843
1781547262298241,111401439,-0.7441664338111877,0.00606685783714056,0.0002575984108261764,0.6679671406745911,0.07854779809713364,-0.07984241098165512,9.72499942779541,0.6556531190872192,0.0044758194126188755,0.024607399478554726
1781547262534683,111418106,-0.744165301322937,0.006069380324333906,0.00026376769528724253,0.6679683327674866,0.08249952644109726,-0.06916385143995285,9.74732494354248,0.7186219096183777,-0.006902622990310192,0.06417901813983917
1781547262538695,111618110,-0.7441514730453491,0.006107027176767588,0.0002821233356371522,0.6679834723472595,0.09111107140779495,-0.09033140540122986,9.7413911819458,0.7105154991149902,0.01177543867379427,0.04056411236524582
1781547262539752,111634777,-0.7441449165344238,0.006103696301579475,0.00026885324041359127,0.6679907441139221,0.09686876833438873,-0.0869697630405426,9.737789154052734,0.6594181656837463,0.11925913393497467,0.04678799957036972
1781547262774543,111651444,-0.7441447377204895,0.00610969215631485,0.00026985874865204096,0.6679909825325012,0.093660868704319,-0.07545797526836395,9.746084213256836,0.6776927709579468,0.002964669605717063,0.128351628780365
1781547262776454,111868115,-0.7441141605377197,0.006134409923106432,0.00027242160285823047,0.6680248379707336,0.08380845934152603,-0.07948476821184158,9.74277114868164,0.739086389541626,0.06862283498048782,0.04641661047935486
1781547262777628,111884782,-0.7441145181655884,0.006126299034804106,0.0002712697605602443,0.668024480342865,0.09157581627368927,-0.088053397834301,9.7210693359375,0.7399317026138306,0.07871422171592712,0.12832602858543396
1781547263014954,111901449,-0.744103729724884,0.006122954655438662,0.0002746297395788133,0.6680364608764648,0.09400777518749237,-0.08145526051521301,9.736562728881836,0.7357823252677917,0.034212157130241394,0.01761513389647007
1781547263016840,112101453,-0.7441161870956421,0.006116518750786781,0.0002903598942793906,0.6680226922035217,0.11211052536964417,-0.0928383395075798,9.748390197753906,0.6236116290092468,0.00204261252656579,0.10241878032684326
1781547263018188,112118120,-0.7441259622573853,0.006120934151113033,0.00029587451717816293,0.6680117249488831,0.08886147290468216,-0.06940703839063644,9.747028350830078,0.7060588598251343,-0.012550221756100655,0.13319243490695953
1781547263254388,112134787,-0.7441366314888,0.006127023138105869,0.00030026459717191756,0.667999804019928,0.09744807332754135,-0.08517810702323914,9.748866081237793,0.6924841403961182,-0.014663268812000751,0.15448938310146332
1781547263255957,112334791,-0.7441349625587463,0.006149617023766041,0.00032020692015066743,0.6680014133453369,0.08666224777698517,-0.0834508016705513,9.75783634185791,0.7059947848320007,0.060977429151535034,-0.016878768801689148
1781547263257663,112351458,-0.7441338896751404,0.006152039393782616,0.0003134740109089762,0.6680025458335876,0.09872835129499435,-0.08199885487556458,9.723156929016113,0.6599817276000977,0.05923577770590782,0.07225983589887619
1781547263495569,112368125,-0.7441322207450867,0.006142313592135906,0.000308099202811718,0.6680043935775757,0.09073195606470108,-0.07816874235868454,9.728754043579102,0.7283740043640137,0.10808559507131577,0.06807855516672134
1781547263497622,112584796,-0.744111180305481,0.0061527215875685215,0.00031145126558840275,0.6680278182029724,0.098903588950634,-0.08805695176124573,9.758131980895996,0.647982120513916,0.10535144805908203,0.06918630748987198
1781547263499534,112601463,-0.7441093325614929,0.00614972272887826,0.0003045088378712535,0.6680300235748291,0.09594599157571793,-0.07562249153852463,9.74559497833252,0.6868749260902405,0.08504056185483932,0.0809297263622284
1781547263734681,112618130,-0.7441132068634033,0.006153129041194916,0.00029662082670256495,0.6680256724357605,0.08754912763834,-0.08843245357275009,9.736886024475098,0.6499030590057373,0.060247477144002914,0.13215512037277222
1781547263738463,112818134,-0.7441616654396057,0.006091130897402763,0.0002886899746954441,0.6679721474647522,0.08987366408109665,-0.08257462829351425,9.753050804138184,0.7225406169891357,0.016321690753102303,0.11618559807538986
1781547263738989,112834801,-0.7441626191139221,0.006085446570068598,0.0002830103621818125,0.6679712533950806,0.09173683822154999,-0.07155633717775345,9.755425453186035,0.7054953575134277,0.09117480367422104,0.02773214876651764
1781547263974976,112851468,-0.74415123462677,0.0060950773768126965,0.00027975370176136494,0.6679838299751282,0.09376458078622818,-0.09055671840906143,9.75908374786377,0.6386463046073914,0.007984759286046028,0.013453071936964989
1781547263976612,113068139,-0.7441657185554504,0.006123676896095276,0.000306422240100801,0.6679673790931702,0.07623755186796188,-0.076090969145298,9.73891830444336,0.6770013570785522,-0.006569657940417528,0.03678624704480171
1781547263977897,113084806,-0.744168221950531,0.006118279881775379,0.000305790948914364,0.6679646968841553,0.09130779653787613,-0.08704128861427307,9.73099136352539,0.7275094985961914,0.06356431543827057,0.07894474267959595
1781547264215059,113101473,-0.7441708445549011,0.006123276427388191,0.00030247727409005165,0.6679616570472717,0.09108961373567581,-0.0707552507519722,9.74094009399414,0.6616719961166382,0.029909228906035423,0.04005185514688492
1781547264216511,113301477,-0.7441651225090027,0.0061352429911494255,0.00030324430554173887,0.6679678559303284,0.10060951113700867,-0.08478470891714096,9.74087905883789,0.7020760774612427,-0.023371586576104164,0.07611453533172607
1781547264217956,113318144,-0.7441689968109131,0.006142926402390003,0.00030257366597652435,0.667963445186615,0.09362152963876724,-0.07887683063745499,9.735416412353516,0.6607179641723633,0.003342457115650177,0.12340197712182999
1781547264454424,113334811,-0.7441690564155579,0.006141354329884052,0.00029935420025140047,0.667963445186615,0.09949371963739395,-0.07808288931846619,9.739470481872559,0.6960058808326721,0.059222955256700516,0.06499861925840378
1781547264456514,113534815,-0.7441559433937073,0.0061205183155834675,0.0002939760161098093,0.6679782271385193,0.09358588606119156,-0.0860721543431282,9.743206977844238,0.6896539330482483,-0.024690639227628708,0.1271350234746933
1781547264457676,113551482,-0.7441481351852417,0.006112108938395977,0.0002918900572694838,0.6679869294166565,0.08923710137605667,-0.08096890896558762,9.721261024475098,0.7361922860145569,0.08479724824428558,0.03099776990711689
1781547264694660,113568149,-0.7441497445106506,0.006113454233855009,0.0002924152067862451,0.6679852604866028,0.09806317836046219,-0.0794883593916893,9.736685752868652,0.6985287666320801,0.02643870748579502,0.10236755758523941
1781547264696978,113784820,-0.7441214323043823,0.006128291133791208,0.0002632223768159747,0.6680165529251099,0.09079275280237198,-0.0785728469491005,9.746358871459961,0.7159836888313293,0.04787653312087059,0.04060252755880356
1781547264699102,113801487,-0.7441199421882629,0.0061243269592523575,0.00026763210189528763,0.6680183410644531,0.09919683635234833,-0.07926306128501892,9.738566398620605,0.7431332468986511,0.031266700476408005,0.049759071320295334
1781547264934979,113818154,-0.7441081404685974,0.006134114693850279,0.0002759894705377519,0.6680313944816589,0.08191660791635513,-0.08026439696550369,9.754502296447754,0.6915876865386963,-0.05276215821504593,0.07498758286237717
1781547264937159,114018158,-0.744102954864502,0.006147310137748718,0.0002919491962529719,0.6680371165275574,0.08536751568317413,-0.0910395160317421,9.740588188171387,0.759589433670044,-0.01262706145644188,0.12138497829437256
1781547264938552,114034825,-0.7440961599349976,0.006149027496576309,0.00030707207042723894,0.6680446863174438,0.0940113365650177,-0.08169130235910416,9.718965530395508,0.763367235660553,-0.04972705617547035,0.032931528985500336
1781547265174916,114051492,-0.7440995573997498,0.006152075249701738,0.0003113787970505655,0.6680408120155334,0.09576375037431717,-0.07879814505577087,9.72549819946289,0.7067760825157166,-0.00040980317862704396,0.07457778602838516
1781547265177680,114268163,-0.7441095113754272,0.006185457110404968,0.0002983706654049456,0.6680294275283813,0.10669256746768951,-0.07340165227651596,9.747858047485352,0.6514654159545898,0.014618447981774807,0.1210264042019844
1781547265178620,114284830,-0.7441142797470093,0.006184886675328016,0.00029218464624136686,0.6680241823196411,0.10215078294277191,-0.07871589809656143,9.744721412658691,0.6771805286407471,0.06978820264339447,0.09591314941644669
1781547265414450,114301497,-0.7441318035125732,0.006191215943545103,0.0003002183511853218,0.6680044531822205,0.09444048255681992,-0.08738104999065399,9.755657196044922,0.7069424390792847,-0.034397851675748825,0.1350877732038498
1781547265416494,114501501,-0.7441466450691223,0.006197931244969368,0.00032419507624581456,0.6679878830909729,0.09806664288043976,-0.08472036570310593,9.743745803833008,0.6969791650772095,0.03706797584891319,0.11751746386289597
1781547265418079,114518168,-0.7441508173942566,0.006193000823259354,0.0003156863385811448,0.6679832935333252,0.10537652671337128,-0.08085089176893234,9.751083374023438,0.6889622807502747,0.10154794901609421,0.10880912840366364
1781547265654732,114534835,-0.7441661357879639,0.006189085077494383,0.0003121982153970748,0.6679662466049194,0.08467385917901993,-0.0822778046131134,9.749617576599121,0.7060588002204895,0.0719652771949768,0.07693413645029068
1781547265657579,114734839,-0.7441990971565247,0.00617993576452136,0.00028428860241547227,0.6679297685623169,0.10077394545078278,-0.08035380393266678,9.740472793579102,0.7159901857376099,0.0019849841482937336,0.11744702607393265
1781547265658356,114751506,-0.744193971157074,0.0061782654374837875,0.00027991359820589423,0.6679354906082153,0.0873095765709877,-0.07877310365438461,9.761754035949707,0.691171407699585,0.0653764083981514,0.057103510946035385
1781547265894565,114768173,-0.7441977262496948,0.0061909230425953865,0.00028062568162567914,0.667931079864502,0.09430458396673203,-0.07220005244016647,9.731439590454102,0.6410409808158875,-0.02630424126982689,0.08465637266635895
1781547265896228,114984844,-0.744159996509552,0.0061483909375965595,0.0003999666078016162,0.6679734587669373,0.09891074150800705,-0.0763484463095665,9.74181079864502,0.6961339712142944,0.01675710640847683,0.03325168788433075
1781547265898833,115001511,-0.7441567778587341,0.006150201428681612,0.00039457884849980474,0.6679770946502686,0.09200865775346756,-0.0913434848189354,9.752578735351562,0.6680368185043335,0.05443338677287102,0.061336006969213486
1781547266134477,115018178,-0.7441550493240356,0.006150500848889351,0.0003981675545219332,0.6679790019989014,0.08439849317073822,-0.07898053526878357,9.750106811523438,0.7168674468994141,0.015489280223846436,0.06127198040485382
1781547266136613,115218182,-0.7441580891609192,0.0061587258242070675,0.00041207773028872907,0.6679754257202148,0.1026836410164833,-0.07196759432554245,9.741138458251953,0.6522210240364075,0.05801916867494583,0.09492707997560501
1781547266137573,115234849,-0.7441555261611938,0.006163543090224266,0.00039271387504413724,0.6679782271385193,0.08227422833442688,-0.07277581840753555,9.72031021118164,0.5884581804275513,0.11202354729175568,0.07442410290241241
1781547266376302,115251516,-0.7441496253013611,0.006167097482830286,0.00038920342922210693,0.6679847240447998,0.08849682658910751,-0.07890544086694717,9.734686851501465,0.6674476861953735,0.03696552664041519,0.023454828187823296
1781547266378081,115468187,-0.7441437840461731,0.006193185690790415,0.0004132281173951924,0.667991042137146,0.07978162914514542,-0.0775071308016777,9.727776527404785,0.6655011177062988,0.01661623828113079,0.027655310928821564
1781547266379346,115484854,-0.7441465258598328,0.006190430838614702,0.0004050637362524867,0.6679882407188416,0.09866756200790405,-0.07300111651420593,9.73939323425293,0.6782946586608887,0.08952278643846512,0.0747058317065239
1781547266616053,115501521,-0.7441640496253967,0.006180282682180405,0.000419255142332986,0.6679686903953552,0.08895815908908844,-0.061492882668972015,9.771210670471191,0.8181272149085999,0.009700809605419636,0.07772813737392426
1781547266616701,115701525,-0.7441350221633911,0.006216914393007755,0.0003935660934075713,0.6680006384849548,0.10616686940193176,-0.07540790736675262,9.741312980651855,0.6742479205131531,0.06079814210534096,0.08310680091381073
1781547266619028,115718192,-0.7441394329071045,0.00621793232858181,0.00039504707092419267,0.6679956912994385,0.10119951516389847,-0.07742846757173538,9.741578102111816,0.7038818597793579,0.022148581221699715,0.16299280524253845
1781547266855856,115734859,-0.7441442012786865,0.006225213408470154,0.0003999991458840668,0.6679903268814087,0.10020532459020615,-0.07624116539955139,9.730624198913574,0.6874129176139832,-0.02401190809905529,0.12212775647640228
1781547266858763,115934863,-0.7441445589065552,0.006260034162551165,0.0003749353054445237,0.6679895520210266,0.08774582296609879,-0.059461597353219986,9.73829174041748,0.6074499487876892,-0.028173966333270073,0.04087145999073982
1781547266859970,115951530,-0.7441564798355103,0.006261304020881653,0.00037203385727480054,0.667976438999176,0.09676859527826309,-0.07241462171077728,9.74056625366211,0.6819444894790649,0.04379131272435188,0.15087799727916718
1781547267094474,115968197,-0.7441596388816833,0.006263310089707375,0.000377001881133765,0.6679727435112,0.09508062154054642,-0.08065420389175415,9.75811767578125,0.714101254940033,0.000364980980521068,0.08059675991535187
1781547267098156,116184868,-0.7441349625587463,0.0062502166256308556,0.00035673932870849967,0.6680004000663757,0.08548926562070847,-0.08121565729379654,9.732836723327637,0.631141722202301,0.05192333832383156,0.016232047230005264
1781547267098590,116201535,-0.7441287636756897,0.006239843089133501,0.00034606020199134946,0.6680074334144592,0.09588884562253952,-0.06897073239088058,9.74104118347168,0.7052904367446899,0.13735449314117432,0.01701323315501213
1781547267336324,116218202,-0.744132936000824,0.006232220213860273,0.0003333060594741255,0.6680029630661011,0.09123978018760681,-0.08101897686719894,9.736921310424805,0.6823543310165405,0.13471639156341553,0.1395956128835678
1781547267338040,116418206,-0.744157612323761,0.006260249763727188,0.0003681624948512763,0.6679751873016357,0.0826425775885582,-0.06709322333335876,9.741939544677734,0.6986696720123291,-0.007824679836630821,0.028385275974869728
1781547267339684,116434873,-0.7441608309745789,0.00626051751896739,0.00036961358273401856,0.6679715514183044,0.09099659323692322,-0.06646023690700531,9.726222038269043,0.706660807132721,0.02628503181040287,0.07398868352174759
1781547267574815,116451540,-0.744154691696167,0.006259699817746878,0.0003667558776214719,0.6679783463478088,0.09016333520412445,-0.06894569844007492,9.763625144958496,0.6924329996109009,0.053191177546978,0.035031769424676895
1781547267576857,116668211,-0.7441614866256714,0.006273829378187656,0.0003988080134149641,0.667970597743988,0.10888127237558365,-0.09258441627025604,9.746500968933105,0.7340150475502014,0.028859103098511696,0.06873807311058044
1781547267578899,116684878,-0.7441652417182922,0.006279613357037306,0.0003990792029071599,0.6679664850234985,0.09711182862520218,-0.08007128536701202,9.747236251831055,0.6730056405067444,0.006806574761867523,0.08708956837654114
1781547267814678,116701545,-0.7441724538803101,0.006271853111684322,0.0003965971409343183,0.6679584383964539,0.09542036056518555,-0.06689653545618057,9.737343788146973,0.7288669347763062,0.08381114900112152,0.021149687469005585
1781547267816436,116901549,-0.7440996170043945,0.0062230913899838924,0.0004015778249595314,0.6680400371551514,0.09392192959785461,-0.09723707288503647,9.743223190307617,0.670802891254425,0.09620770066976547,0.10008802264928818
1781547267818672,116918216,-0.7441014051437378,0.006230989005416632,0.0004110012960154563,0.6680378913879395,0.08539973944425583,-0.08781018853187561,9.748251914978027,0.7041955590248108,-0.05028412863612175,0.09397298842668533
1781547268055799,116934883,-0.7441043853759766,0.006228405516594648,0.0004064500390086323,0.6680346727371216,0.08988431841135025,-0.08204536139965057,9.742321968078613,0.6934446096420288,0.06948084384202957,0.08121146261692047
1781547268057234,117134887,-0.7440727353096008,0.006248566322028637,0.00038649371708743274,0.6680696606636047,0.09125416725873947,-0.07148478925228119,9.754176139831543,0.7272917628288269,0.04051288589835167,0.09346713870763779
1781547268058344,117151554,-0.7440823912620544,0.006247059442102909,0.00037519182660616934,0.6680589318275452,0.07737114280462265,-0.06726132333278656,9.74364948272705,0.6569272875785828,0.09900588542222977,0.11603832244873047
1781547268294532,117168221,-0.7440805435180664,0.006242590956389904,0.0003685185220092535,0.6680611968040466,0.08400153368711472,-0.07100202143192291,9.728971481323242,0.6935727000236511,0.08867757767438889,0.08839582651853561
1781547268296535,117384892,-0.7440806031227112,0.006243638228625059,0.00040982893551699817,0.6680609583854675,0.08924425393342972,-0.07235740125179291,9.74673080444336,0.7655059695243835,-0.09691844880580902,0.02132897451519966
1781547268297581,117401559,-0.744081974029541,0.0062425159849226475,0.00041493511525914073,0.6680595278739929,0.08867576718330383,-0.07785402238368988,9.749991416931152,0.7306725978851318,0.012710301205515862,0.1328466534614563
1781547268534877,117418226,-0.7440694570541382,0.006248817779123783,0.0004281909787096083,0.6680733561515808,0.08045035600662231,-0.07020452618598938,9.749195098876953,0.729558527469635,-0.06254620850086212,-0.0036370037123560905
1781547268536980,117618230,-0.7440803647041321,0.006239818409085274,0.00041929472354240716,0.6680612564086914,0.09152229875326157,-0.0829465389251709,9.753020286560059,0.7342840433120728,0.044803012162446976,-0.0021514669060707092
1781547268538539,117634897,-0.7440915703773499,0.006237789057195187,0.0004112774331588298,0.6680489182472229,0.1017143502831459,-0.0892585813999176,9.744389533996582,0.6746320724487305,0.0841953456401825,0.145076721906662
1781547268774691,117651564,-0.7440857887268066,0.006237394642084837,0.00041757168946787715,0.6680552959442139,0.08149459213018417,-0.0726613849401474,9.735806465148926,0.7317227721214294,0.003771469695493579,0.02237909473478794
1781547268778147,117868235,-0.7440840601921082,0.006269782781600952,0.00042128394125029445,0.6680569648742676,0.09287767857313156,-0.07896623015403748,9.73770809173584,0.627286970615387,0.029025590047240257,0.14441080391407013
1781547268778888,117884902,-0.7440763711929321,0.006280017551034689,0.0004206139128655195,0.6680653095245361,0.08759204298257828,-0.08629745990037918,9.745475769042969,0.6458305716514587,-0.009937726892530918,0.06586945801973343
1781547269014568,117901569,-0.7440770268440247,0.006286283489316702,0.00041551340837031603,0.668064534664154,0.09266653656959534,-0.06608474254608154,9.748970985412598,0.6455360054969788,0.031125832349061966,0.08290190994739532
1781547269015669,118101573,-0.7440558671951294,0.006296191830188036,0.000432507018558681,0.6680880784988403,0.09141506254673004,-0.07160280644893646,9.750402450561523,0.7014870047569275,0.06590788811445236,0.05605980008840561
1781547269017316,118118240,-0.7440658807754517,0.0062962244264781475,0.0004251540231052786,0.6680768728256226,0.08359397202730179,-0.08786023408174515,9.734227180480957,0.6671276092529297,0.07117129117250443,0.13630439341068268
1781547269254739,118134907,-0.7440603375434875,0.006298973690718412,0.00043207232374697924,0.6680829524993896,0.09303861111402512,-0.08655136823654175,9.744102478027344,0.7187499403953552,-0.014279079623520374,0.04913155734539032
1781547269257087,118334911,-0.7440614104270935,0.0063201626762747765,0.00039468207978643477,0.668081521987915,0.10398180037736893,-0.07629123330116272,9.758185386657715,0.7317163348197937,0.04455328732728958,0.07104962319135666
1781547269259079,118351578,-0.7440539598464966,0.006321682594716549,0.0003833244845736772,0.6680898070335388,0.0936751738190651,-0.07743562012910843,9.735051155090332,0.6410665512084961,0.08473320305347443,0.04457249864935875
1781547269494702,118368245,-0.7440558671951294,0.006320785731077194,0.0003798487305175513,0.6680877804756165,0.08546777814626694,-0.07329794764518738,9.748473167419434,0.6897307634353638,0.055329833179712296,0.10983365029096603
1781547269496187,118584916,-0.7440913915634155,0.0063058193773031235,0.0004050502320751548,0.6680485010147095,0.10008016228675842,-0.08814278244972229,9.748187065124512,0.7561188340187073,-0.02685491181910038,0.07383500784635544
1781547269497731,118601583,-0.7440994381904602,0.006308647338300943,0.0003998163156211376,0.6680393815040588,0.08992382138967514,-0.07640207558870316,9.734742164611816,0.6620305776596069,0.04751795902848244,0.10077956318855286
1781547269735731,118618250,-0.7441056370735168,0.006308586336672306,0.00040150011773221195,0.6680325269699097,0.08695892244577408,-0.09634661674499512,9.760693550109863,0.7091963887214661,0.024940362200140953,0.1416318118572235
1781547269737388,118818254,-0.7440862655639648,0.006231695879250765,0.0004403746861498803,0.6680548191070557,0.0914793610572815,-0.0695071667432785,9.748530387878418,0.8132224678993225,-0.012153225019574165,0.018780510872602463
1781547269738998,118834921,-0.7440802454948425,0.0062240855768322945,0.00043740469845943153,0.6680616140365601,0.08731668442487717,-0.08675520122051239,9.746768951416016,0.7253708839416504,0.08392641693353653,0.00492404168471694
1781547269976223,118851588,-0.7440723180770874,0.006226796191185713,0.00043414635001681745,0.6680703163146973,0.10068447142839432,-0.07060863822698593,9.739640235900879,0.6720196008682251,0.03731130063533783,0.07309223711490631
1781547269977997,119068259,-0.7440629005432129,0.006243331823498011,0.0004791434039361775,0.6680805683135986,0.09288840740919113,-0.08257105201482773,9.72973346710205,0.6624660491943359,-0.07532694935798645,0.1901806890964508
1781547269979700,119084926,-0.7440642714500427,0.006246266886591911,0.0004892033175565302,0.6680789589881897,0.08436284959316254,-0.07733190059661865,9.739252090454102,0.7321070432662964,-0.03186219558119774,0.12087272852659225
1781547270214611,119101593,-0.744073748588562,0.006233149208128452,0.00048487383173778653,0.6680686473846436,0.08475253731012344,-0.08703773468732834,9.726962089538574,0.7472953200340271,0.11632648855447769,0.06804654002189636
1781547270216159,119301597,-0.7440549731254578,0.006243627052754164,0.0004843728384003043,0.6680895090103149,0.0956563949584961,-0.10080255568027496,9.739378929138184,0.6733899116516113,-0.02159150503575802,0.14677998423576355
1781547270218453,119318264,-0.7440630793571472,0.0062406547367572784,0.0004706006729975343,0.6680803894996643,0.09124693274497986,-0.08789244294166565,9.778735160827637,0.6520160436630249,0.11791446805000305,0.06271909177303314
1781547270454745,119334931,-0.7440544962882996,0.00624046940356493,0.0004728499334305525,0.6680899858474731,0.07752503454685211,-0.07333371043205261,9.740594863891602,0.7114246487617493,0.023083442822098732,-0.013164927251636982
1781547270457582,119534935,-0.7440237998962402,0.006202590186148882,0.0004956876509822905,0.6681243777275085,0.08716286718845367,-0.08240655064582825,9.736257553100586,0.663887619972229,0.02648993767797947,0.030011678114533424
1781547270458315,119551602,-0.7440318465232849,0.0062042647041380405,0.0005001058452762663,0.6681156158447266,0.0918872207403183,-0.07186387479305267,9.757880210876465,0.7125900983810425,0.0026957367081195116,0.15717872977256775
1781547270694584,119568269,-0.7440165877342224,0.006193583831191063,0.0004939385107718408,0.6681326031684875,0.09288842976093292,-0.0956563800573349,9.735697746276855,0.7270612716674805,0.11370117217302322,0.020931977778673172
1781547270697346,119784940,-0.7440136075019836,0.006252325605601072,0.0005030868342146277,0.668135404586792,0.09057091176509857,-0.09247715026140213,9.733460426330566,0.6706108450889587,0.01806335709989071,0.12440728396177292
1781547270699331,119801607,-0.7440077662467957,0.006262195762246847,0.0004998460644856095,0.6681419014930725,0.08553215116262436,-0.08310747891664505,9.751348495483398,0.6350348591804504,0.004655108321458101,0.023544473573565483
1781547270935333,119818274,-0.7440068125724792,0.006262950599193573,0.00048736564349383116,0.6681429743766785,0.0952916219830513,-0.08207038044929504,9.734536170959473,0.6394786834716797,0.09355678409337997,0.07442409545183182
1781547270937203,120018278,-0.7440250515937805,0.006256789434701204,0.0004732580855488777,0.6681227087974548,0.08718077838420868,-0.06885629147291183,9.752996444702148,0.6510043144226074,0.011788243427872658,0.06994187831878662
1781547270939484,120034945,-0.7440215945243835,0.006272124592214823,0.00048107042675837874,0.6681263446807861,0.08065420389175415,-0.08118347823619843,9.757241249084473,0.6579967141151428,-0.077119842171669,0.048119861632585526
1781547271176606,120051612,-0.7440170049667358,0.006280332338064909,0.0004774574772454798,0.668131411075592,0.07678474485874176,-0.0972263440489769,9.743509292602539,0.6420463919639587,0.01398453302681446,0.0568089634180069
1781547271177125,120268283,-0.7440497279167175,0.006311174016445875,0.00047001446364447474,0.6680946350097656,0.08781373500823975,-0.08176641166210175,9.719320297241211,0.6620306372642517,-0.014279080554842949,0.03920663893222809
1781547271178463,120284950,-0.7440445423126221,0.006309875287115574,0.00046479649608954787,0.6681004762649536,0.08548206090927124,-0.09077130258083344,9.738066673278809,0.6831226944923401,0.0660487487912178,0.02177719585597515
1781547271415355,120301617,-0.7440487742424011,0.0063134836964309216,0.0004744819598272443,0.6680957078933716,0.07344814389944077,-0.08750264346599579,9.734203338623047,0.7268691658973694,-0.033194057643413544,0.12585440278053284
1781547271416632,120501621,-0.7440510988235474,0.006299880798906088,0.0004230234771966934,0.6680933833122253,0.10267291218042374,-0.06450404971837997,9.74724292755127,0.7261776328086853,0.11504583805799484,0.05986328050494194
1781547271418403,120518288,-0.7440512776374817,0.006300654727965593,0.00041779858293011785,0.668093204498291,0.087305948138237,-0.06896000355482101,9.743180274963379,0.6720452308654785,0.05678975582122803,0.010315514169633389
1781547271655681,120534955,-0.7440555095672607,0.0063039278611540794,0.00042231913539581,0.6680883765220642,0.09413641691207886,-0.07559029757976532,9.749439239501953,0.7045989036560059,-0.00509692681953311,0.09620770066976547
1781547271656331,120734959,-0.7440742254257202,0.00626999419182539,0.00038809009129181504,0.6680677533149719,0.0898665115237236,-0.07950981706380844,9.736027717590332,0.7223485708236694,0.003925146069377661,0.027962660416960716
1781547271657863,120751626,-0.7440810799598694,0.006264337804168463,0.00038549606688320637,0.6680602431297302,0.09280972927808762,-0.07589785009622574,9.747159957885742,0.7174181342124939,0.07252875715494156,0.08943314105272293
1781547271894613,120768293,-0.7440801858901978,0.006262768059968948,0.0003861843142658472,0.6680611968040466,0.09522724896669388,-0.08239581435918808,9.74071979522705,0.711872935295105,0.036683786660432816,0.07839406281709671
1781547271897254,120984964,-0.7441036105155945,0.006263446062803268,0.00042007083538919687,0.6680352091789246,0.09617862105369568,-0.07903774827718735,9.741741180419922,0.681637167930603,-0.011679389514029026,0.11317611485719681
1781547271898401,121001631,-0.7441017031669617,0.006260859780013561,0.0004222016432322562,0.6680372357368469,0.08725230395793915,-0.08182720094919205,9.753268241882324,0.7233346104621887,0.03414813056588173,0.06922472268342972
1781547272135156,121018298,-0.7440990805625916,0.006258788052946329,0.0004231072380207479,0.6680402159690857,0.09639309346675873,-0.08557149022817612,9.743019104003906,0.7148568630218506,0.03824616223573685,0.04033359885215759
1781547272137423,121218302,-0.7441166043281555,0.0062688314355909824,0.00043684616684913635,0.6680206060409546,0.0851423442363739,-0.07960280030965805,9.74588394165039,0.722041130065918,0.048657722771167755,0.08646205812692642
1781547272139097,121234969,-0.7441220283508301,0.006270470097661018,0.00043884560000151396,0.6680145859718323,0.0999944731593132,-0.07668102532625198,9.731781005859375,0.7014741897583008,0.015002637170255184,0.1469336450099945
1781547272374668,121251636,-0.7441157698631287,0.006269126199185848,0.0004268767952453345,0.6680216193199158,0.09023843705654144,-0.08178428560495377,9.759129524230957,0.6523746252059937,0.10036976635456085,0.06198912858963013
1781547272377339,121468307,-0.7440859079360962,0.006290221121162176,0.0004212979692965746,0.6680545806884766,0.08335781842470169,-0.09327821433544159,9.759133338928223,0.6900380849838257,0.09089305996894836,0.06370518356561661
1781547272377955,121484974,-0.744086742401123,0.0062852646224200726,0.0004196253721602261,0.6680536270141602,0.08364748954772949,-0.08775297552347183,9.746877670288086,0.7180072069168091,0.06435830891132355,0.09770604223012924
1781547272615338,121501641,-0.7440891861915588,0.006282655522227287,0.0004171374603174627,0.6680510640144348,0.07787200063467026,-0.06908873468637466,9.728616714477539,0.7022297382354736,0.057788651436567307,0.09554176032543182
1781547272617373,121701645,-0.7441152334213257,0.006239795126020908,0.0003856831172015518,0.6680225133895874,0.09038864076137543,-0.09416869282722473,9.743595123291016,0.727912962436676,0.05449101701378822,0.06869325786828995
1781547272619421,121718312,-0.744110107421875,0.006235918495804071,0.0003888950159307569,0.6680283546447754,0.0962357372045517,-0.0758155956864357,9.740025520324707,0.7342584133148193,0.034929316490888596,0.0028878317680209875
1781547272857254,121734979,-0.744107723236084,0.006238759495317936,0.0003805904998444021,0.6680307984352112,0.09993719309568405,-0.06790858507156372,9.732195854187012,0.6473289728164673,0.06275752186775208,0.04518720507621765
1781547272857736,121934983,-0.7441086173057556,0.006259719841182232,0.0004051252908539027,0.66802978515625,0.09018471837043762,-0.07756078988313675,9.75142765045166,0.6722116470336914,0.02418478950858116,0.08077603578567505
1781547272858282,121951650,-0.7441122531890869,0.006267142947763205,0.0004055613826494664,0.6680254936218262,0.09128984063863754,-0.06515491753816605,9.738670349121094,0.6642845869064331,-0.003355263499543071,0.11624963581562042
1781547273095161,121968317,-0.7441089749336243,0.006266849581152201,0.00039805343840271235,0.6680291295051575,0.09787364304065704,-0.06624923646450043,9.761303901672363,0.6670891046524048,0.07301540672779083,0.05322958901524544
1781547273096005,122184988,-0.7441239953041077,0.006254369858652353,0.00039814558112993836,0.6680126786231995,0.0899665579199791,-0.08368325978517532,9.720951080322266,0.7310311794281006,0.04719780012965202,0.09359520673751831
1781547273098761,122201655,-0.7441263198852539,0.006260357331484556,0.00039449206087738276,0.6680099964141846,0.06826633214950562,-0.06899217516183853,9.738289833068848,0.6530148983001709,0.024005502462387085,0.1223454549908638
1781547273335444,122218322,-0.7441318035125732,0.0062592532485723495,0.0003925217315554619,0.6680038571357727,0.09600328654050827,-0.07791125029325485,9.74399185180664,0.696402907371521,0.04854246973991394,0.07256718724966049
1781547273336736,122418326,-0.7441201210021973,0.006264457944780588,0.0004165234277024865,0.6680168509483337,0.10139977931976318,-0.0745353102684021,9.725363731384277,0.6844545006752014,0.05444619432091713,0.021892454475164413
1781547273337905,122434993,-0.7441230416297913,0.006259304005652666,0.0004126880085095763,0.6680136919021606,0.09203021228313446,-0.0766524076461792,9.733519554138184,0.7089019417762756,0.07633224874734879,0.0990891382098198
1781547273574731,122451660,-0.7441197633743286,0.006256198510527611,0.00040796067332848907,0.6680173873901367,0.0924593135714531,-0.089408740401268,9.73414134979248,0.6941361427307129,0.07160670310258865,0.05142389237880707
1781547273577203,122668331,-0.744107723236084,0.006277213804423809,0.0004063169762957841,0.6680305004119873,0.08011776953935623,-0.09540963172912598,9.735026359558105,0.7001679539680481,0.034084100276231766,0.11842671781778336
1781547273578960,122684998,-0.7441059947013855,0.0062880790792405605,0.00040823552990332246,0.6680322885513306,0.09179766476154327,-0.07380576431751251,9.754009246826172,0.6529253125190735,-0.026317046955227852,0.025644714012742043
1781547273814967,122701665,-0.744102418422699,0.006282180547714233,0.0004045058449264616,0.6680363416671753,0.08950528502464294,-0.08022864162921906,9.76098346710205,0.7128205895423889,0.07943137735128403,0.027860211208462715
1781547273816911,122901669,-0.7441388368606567,0.00626870384439826,0.00045047036837786436,0.667995810508728,0.09187634289264679,-0.0894087553024292,9.755789756774902,0.7536600232124329,0.03834861144423485,0.11125516146421432
1781547273818018,122918336,-0.7441291809082031,0.006273178383708,0.0004401134210638702,0.6680067181587219,0.0944833979010582,-0.08248879760503769,9.739328384399414,0.6296817660331726,0.06529317051172256,0.06179703772068024
1781547274055653,122935003,-0.7440990805625916,0.006276857107877731,0.00044843927025794983,0.6680401563644409,0.09816326200962067,-0.08175210654735565,9.740623474121094,0.7202610373497009,-0.027379974722862244,0.05315275117754936
1781547274057875,123135007,-0.7440966367721558,0.0063011799938976765,0.0004065789980813861,0.6680426001548767,0.10078467428684235,-0.07749640941619873,9.724783897399902,0.7458994388580322,0.01062286738306284,0.04790215194225311
1781547274059931,123151674,-0.7441027760505676,0.00630589434877038,0.000414097448810935,0.6680356860160828,0.0968971997499466,-0.08605427294969559,9.72220230102539,0.710579514503479,-0.027290329337120056,0.1402999609708786
1781547274294818,123168341,-0.7440980076789856,0.006320524495095015,0.00040943926433101296,0.6680408120155334,0.09754820913076401,-0.08499214053153992,9.747331619262695,0.6033391356468201,-0.010052984580397606,0.034737229347229004
1781547274296571,123385012,-0.7441493272781372,0.006351770833134651,0.00042161846067756414,0.6679834127426147,0.09197647869586945,-0.08966624736785889,9.754252433776855,0.7438951730728149,0.011615358293056488,0.16882610321044922
1781547274299237,123401679,-0.7441611289978027,0.006357446778565645,0.0004226072342135012,0.6679702997207642,0.08103685826063156,-0.0763949379324913,9.741925239562988,0.675490140914917,0.00187613011803478,0.14932844042778015
1781547274534835,123418346,-0.7441625595092773,0.006353476084768772,0.0004162690311204642,0.66796875,0.09980829060077667,-0.09042441099882126,9.7380952835083,0.690947413444519,0.08370870351791382,0.08457954227924347
1781547274537196,123618350,-0.7441617250442505,0.006329432129859924,0.00040171173168346286,0.667969822883606,0.10008016228675842,-0.08349013328552246,9.73599910736084,0.6936494708061218,0.0956314206123352,-0.0065696570090949535
1781547274538605,123635017,-0.7441561818122864,0.006340263411402702,0.00039876330993138254,0.667975902557373,0.09168680012226105,-0.07304760813713074,9.747464179992676,0.6303797960281372,-0.0012166033266112208,0.011333620175719261
1781547274775258,123651684,-0.744154691696167,0.006344208959490061,0.00039224361535161734,0.6679775714874268,0.09343557059764862,-0.06838066130876541,9.75189208984375,0.6501975655555725,0.047710057348012924,0.13098974525928497
1781547274777576,123868355,-0.7441759705543518,0.006355422083288431,0.0003742717090062797,0.6679537296295166,0.0917690098285675,-0.0887543186545372,9.749921798706055,0.6847618818283081,0.011621762067079544,0.0476844422519207
1781547274779273,123885022,-0.7441674470901489,0.006351014133542776,0.00037817881093360484,0.6679633855819702,0.07960280030965805,-0.0933568924665451,9.741016387939453,0.7402645945549011,0.033328521996736526,0.030613578855991364
1781547275015035,123901689,-0.7441588640213013,0.006357870530337095,0.00037333121872507036,0.6679727435112,0.10074533522129059,-0.08696620911359787,9.749245643615723,0.6426162123680115,0.02618258073925972,0.05042500048875809
1781547275016438,124101693,-0.7441548109054565,0.006370476447045803,0.0004309923970140517,0.6679771542549133,0.09605348110198975,-0.07212136685848236,9.749419212341309,0.6843264698982239,0.009982549585402012,0.13740572333335876
1781547275018821,124118360,-0.7441520690917969,0.006358101032674313,0.0004262540605850518,0.667980432510376,0.0990072637796402,-0.07994969934225082,9.759770393371582,0.7411226034164429,0.11434147506952286,0.039475567638874054
1781547275256109,124135027,-0.7441573143005371,0.006349645089358091,0.0004256702377460897,0.6679747104644775,0.09880331158638,-0.08688397705554962,9.747275352478027,0.7406231164932251,0.07459058612585068,0.13892967998981476
1781547275257033,124335031,-0.7441604137420654,0.0063688550144433975,0.0004172841727267951,0.6679708957672119,0.08685892075300217,-0.08799973130226135,9.722502708435059,0.699681282043457,0.09529844671487808,0.14088904857635498
1781547275258323,124351698,-0.7441475987434387,0.006376167759299278,0.0004157161747571081,0.6679851412773132,0.08673019707202911,-0.087960384786129,9.742960929870605,0.6551664471626282,0.007421279326081276,0.0129792345687747
1781547275494865,124368365,-0.7441465258598328,0.00636843079701066,0.0004167397855781019,0.6679863929748535,0.08377623558044434,-0.08273197710514069,9.729143142700195,0.7444394826889038,0.06291119009256363,0.1143927201628685
1781547275496456,124585036,-0.7441381216049194,0.00639346381649375,0.000403003505198285,0.6679955720901489,0.08630110323429108,-0.06155725568532944,9.752462387084961,0.6694967150688171,-0.0577310211956501,0.07275926321744919
1781547275498383,124601703,-0.7441346049308777,0.0063944715075194836,0.00039912702050060034,0.6679993867874146,0.08697685599327087,-0.083390012383461,9.740427017211914,0.6769500374794006,0.047914955765008926,0.08913858979940414
1781547275734945,124618370,-0.7441295981407166,0.00639202119782567,0.0003997163148596883,0.6680049300193787,0.09583879262208939,-0.06596671044826508,9.750299453735352,0.7145239114761353,0.041498977690935135,0.012659077532589436
1781547275736505,124818374,-0.7441183924674988,0.0062848529778420925,0.00045935899834148586,0.6680185794830322,0.0774606466293335,-0.07006862759590149,9.732379913330078,0.744874894618988,0.0686996579170227,0.07334835827350616
1781547275741203,124835041,-0.7441179156303406,0.006273208186030388,0.00045696075540035963,0.6680191159248352,0.09715840220451355,-0.07038690894842148,9.762309074401855,0.7472056150436401,0.098269522190094,0.06739340722560883
1781547275976156,124851708,-0.7441135048866272,0.006282013840973377,0.00045714847510680556,0.6680238842964172,0.09426524490118027,-0.07608023285865784,9.76936149597168,0.6544812917709351,-0.008849186822772026,0.04920199140906334
1781547275979590,125068379,-0.7441459894180298,0.006268650759011507,0.0004696979303844273,0.6679878234863281,0.09532380849123001,-0.0909930169582367,9.73238754272461,0.726049542427063,-0.022334273904561996,0.13086166977882385
1781547275980751,125085046,-0.744143545627594,0.006262690294533968,0.0004629221512004733,0.6679906845092773,0.08263542503118515,-0.07831893861293793,9.728270530700684,0.6979268193244934,0.09467093646526337,0.05248682200908661
1781547276216196,125101713,-0.744148850440979,0.006266717333346605,0.00046972217387519777,0.667984664440155,0.09407226741313934,-0.076502226293087,9.750391960144043,0.7095165848731995,-0.021015217527747154,0.1352030336856842
1781547276217953,125301717,-0.7441408634185791,0.006231917068362236,0.00045465375296771526,0.6679938435554504,0.08555718511343002,-0.09537386894226074,9.725584983825684,0.664732813835144,0.044598113745450974,0.09634856879711151
1781547276219666,125318384,-0.7441369295120239,0.006237164605408907,0.000453111162642017,0.6679982542991638,0.08775655180215836,-0.08949100971221924,9.733774185180664,0.6648095846176147,0.016283273696899414,0.059594348073005676
1781547276454844,125335051,-0.7441353797912598,0.006232429761439562,0.00044746248750016093,0.6680001020431519,0.10639581829309464,-0.07329077273607254,9.758785247802734,0.6971840858459473,0.08302996307611465,0.08041746914386749
1781547276457402,125535055,-0.7441508173942566,0.00620548240840435,0.00044949736911803484,0.6679831743240356,0.08762422949075699,-0.08392643183469772,9.744821548461914,0.7573226690292358,0.02733515202999115,0.025619100779294968
1781547276459294,125551722,-0.7441531419754028,0.006218095775693655,0.0004460802301764488,0.667980432510376,0.09473730623722076,-0.0859040766954422,9.736238479614258,0.6185722947120667,-0.008093612268567085,0.09636778384447098
1781547276694949,125568389,-0.744152843952179,0.006208229809999466,0.0004435313167050481,0.6679808497428894,0.08969485759735107,-0.08441995084285736,9.739156723022461,0.7377545833587646,0.09047044813632965,0.09856405854225159
1781547276698155,125785060,-0.7441518306732178,0.006244305055588484,0.00048021000111475587,0.6679815649986267,0.08315754681825638,-0.083175428211689,9.733735084533691,0.6997581124305725,-0.00697946036234498,0.09058570861816406
1781547276699596,125801727,-0.7441521883010864,0.006243591662496328,0.00047587932203896344,0.6679812669754028,0.0936751738190651,-0.07556883990764618,9.745375633239746,0.6826744675636292,0.05760936439037323,0.09962700307369232
1781547276935533,125818394,-0.7441496253013611,0.006246828939765692,0.00047523179091513157,0.6679840087890625,0.09546320885419846,-0.07765734940767288,9.729233741760254,0.6793448328971863,0.020688656717538834,0.07330995053052902
1781547276937620,126018398,-0.744157075881958,0.0062567610293626785,0.00045820840750820935,0.6679757833480835,0.0859040766954422,-0.07170295715332031,9.735945701599121,0.685299813747406,0.07177318632602692,0.1333589255809784
1781547276939161,126035065,-0.7441677451133728,0.006250934209674597,0.00045590984518639743,0.6679638028144836,0.09726210683584213,-0.0905209556221962,9.746916770935059,0.7176229953765869,0.07105603069067001,0.10010083019733429
1781547277174748,126051732,-0.7441682815551758,0.006242274306714535,0.00045906001469120383,0.6679633259773254,0.09192641079425812,-0.08563586324453354,9.745193481445312,0.757700502872467,0.055861297994852066,0.09652145951986313
1781547277176319,126268403,-0.7441689372062683,0.006268682889640331,0.000465783552499488,0.6679623126983643,0.10456830263137817,-0.08226349949836731,9.746499061584473,0.6827385425567627,0.052922237664461136,0.002081031911075115
1781547277178577,126285070,-0.7441633939743042,0.006260417867451906,0.00046243524411693215,0.6679685711860657,0.10057010501623154,-0.08743469417095184,9.73327350616455,0.725396454334259,0.08765306323766708,0.02483791671693325
1781547277415805,126301737,-0.7441646456718445,0.006252827122807503,0.0004608635208569467,0.6679671406745911,0.10923532396554947,-0.08910476416349411,9.751440048217773,0.7303396463394165,0.07525651156902313,0.07232385128736496
1781547277418046,126501741,-0.7441796660423279,0.006257614120841026,0.00046353647485375404,0.667950451374054,0.08037526160478592,-0.08019644767045975,9.74071979522705,0.7205172181129456,0.006998669356107712,0.10628629475831985
1781547277419702,126518408,-0.7441743016242981,0.006249916739761829,0.0004487787082325667,0.6679565906524658,0.09206592291593552,-0.08292149752378464,9.739216804504395,0.6704571843147278,0.14311735332012177,0.052666112780570984
1781547277655167,126535075,-0.7441772818565369,0.00624322984367609,0.00044704426545649767,0.6679534316062927,0.09654686599969864,-0.07122731953859329,9.745461463928223,0.7254349589347839,0.07152986526489258,0.13198862969875336
1781547277656973,126735079,-0.744152307510376,0.0062679722905159,0.00043443666072562337,0.667980968952179,0.08394073694944382,-0.0767597109079361,9.754734992980957,0.6708798408508301,0.0393218956887722,0.02599048800766468
1781547277659090,126751746,-0.7441564798355103,0.006271969527006149,0.0004415956209413707,0.6679762005805969,0.08478114753961563,-0.08720938861370087,9.734711647033691,0.7108483910560608,-0.022308658808469772,0.05785268172621727
1781547277895089,126768413,-0.7441591024398804,0.006272034253925085,0.00043292349437251687,0.6679732203483582,0.08874715864658356,-0.09125050157308578,9.742332458496094,0.658579409122467,0.07642828673124313,0.07116489112377167
1781547277896312,126985084,-0.7441993951797485,0.006232119165360928,0.0004945836262777448,0.6679286956787109,0.09446559101343155,-0.06952504068613052,9.735937118530273,0.6918950080871582,-0.0058909207582473755,0.07806109637022018
1781547277897649,127001751,-0.7441962361335754,0.006224558223038912,0.0004898582119494677,0.6679323315620422,0.09632521122694016,-0.07640565186738968,9.736101150512695,0.7157917618751526,0.09136690199375153,0.06821302324533463
1781547278135106,127018418,-0.7441979050636292,0.006239003501832485,0.0004910087445750833,0.6679303050041199,0.09333888441324234,-0.07146334648132324,9.750551223754883,0.6300147175788879,-0.0396740697324276,0.07429603487253189
1781547278138430,127218422,-0.7441802024841309,0.0062510245479643345,0.0005000695819035172,0.667949914932251,0.08202031254768372,-0.07318350672721863,9.75890064239502,0.6562933325767517,0.025209298357367516,0.13717521727085114
1781547278139061,127235089,-0.7441732883453369,0.006241567432880402,0.0004992336616851389,0.6679577231407166,0.09246999025344849,-0.08419464528560638,9.754341125488281,0.7436583638191223,0.07987961173057556,0.08269700407981873
1781547278375593,127251756,-0.744172990322113,0.006230490282177925,0.0005048025050200522,0.6679580807685852,0.09009531885385513,-0.07754649221897125,9.735953330993652,0.7809311747550964,0.055003270506858826,0.07062701135873795
1781547278377973,127468427,-0.7441816926002502,0.0062211304903030396,0.0004824065254069865,0.6679486036300659,0.085081547498703,-0.0732550323009491,9.738821029663086,0.6540203094482422,-0.01071891374886036,0.03588339313864708
1781547278381708,127485094,-0.74418705701828,0.006224969867616892,0.000475473003461957,0.6679425239562988,0.08337212353944778,-0.08888305723667145,9.738580703735352,0.6473034024238586,0.05029693618416786,0.11106306314468384
1781547278616157,127501761,-0.7441868185997009,0.006221307907253504,0.000476464832900092,0.6679428815841675,0.09243780374526978,-0.07648792117834091,9.747893333435059,0.7223869562149048,0.0439065657556057,0.12002748996019363
1781547278617906,127701765,-0.7441850304603577,0.00622879434376955,0.0004991895984858274,0.6679448485374451,0.08699832856655121,-0.07589427381753922,9.751023292541504,0.7404438853263855,0.009367845952510834,0.06822582334280014
1781547278619624,127718432,-0.74418044090271,0.006231650710105896,0.0004993020556867123,0.6679499745368958,0.08488135784864426,-0.07824382930994034,9.765623092651367,0.6847618818283081,0.01856280118227005,0.08078885078430176
1781547278855524,127735099,-0.7441872954368591,0.006233582738786936,0.0004938454367220402,0.6679420471191406,0.08841099590063095,-0.0853855237364769,9.735176086425781,0.663804292678833,0.051443103700876236,0.12980516254901886
1781547278856660,127935103,-0.7441935539245605,0.006250855512917042,0.0004877544124610722,0.6679350733757019,0.08571811020374298,-0.07498949021100998,9.741803169250488,0.6676782369613647,0.061169520020484924,0.10277735441923141
1781547278858348,127951770,-0.7441917061805725,0.0062448857352137566,0.000493128492962569,0.667937159538269,0.10420717298984528,-0.07829389721155167,9.752284049987793,0.7538521885871887,0.03239366412162781,0.06732937693595886
1781547279095013,127968437,-0.7442019581794739,0.006259498186409473,0.0004926059627905488,0.6679256558418274,0.07587254047393799,-0.07913788408041,9.725106239318848,0.6217995285987854,-0.03220796957612038,0.1633065789937973
1781547279096211,128185108,-0.7441766262054443,0.006304911337792873,0.0005100277485325933,0.6679534912109375,0.09205881506204605,-0.06703957170248032,9.753152847290039,0.6666921377182007,0.004552657250314951,0.09771884977817535
1781547279098509,128201775,-0.7441692352294922,0.006312157958745956,0.0005108250770717859,0.6679615378379822,0.08874358236789703,-0.08092599362134933,9.74129581451416,0.6655139327049255,-0.005199377425014973,0.07117127627134323
1781547279336118,128218442,-0.7441707253456116,0.006306747905910015,0.0005071320338174701,0.667959988117218,0.09014545381069183,-0.08747760951519012,9.757109642028809,0.7094781994819641,0.07611452788114548,0.09645100682973862
1781547279337200,128418446,-0.7441834211349487,0.0063281129114329815,0.0005343962111510336,0.6679455637931824,0.08756329119205475,-0.07216071337461472,9.737637519836426,0.6733642220497131,-0.010680494830012321,0.15123657882213593
1781547279339284,128435113,-0.7441753149032593,0.00633667828515172,0.0005372165469452739,0.6679545044898987,0.10083116590976715,-0.07584062963724136,9.745661735534668,0.6685234308242798,-0.02203972637653351,0.12840285897254944
1781547279574919,128451780,-0.744181215763092,0.006331838201731443,0.0005419452791102231,0.6679480075836182,0.09462644159793854,-0.08357596397399902,9.74045467376709,0.7451949715614319,0.030383063480257988,0.11697959899902344
1781547279578355,128668451,-0.7441885471343994,0.006334891077131033,0.0005865597049705684,0.6679397821426392,0.08743101358413696,-0.084502212703228,9.737326622009277,0.734130322933197,0.058531418442726135,0.10581246018409729
1781547279578986,128685118,-0.7441884279251099,0.00633141677826643,0.0005865590646862984,0.6679400205612183,0.08526045083999634,-0.08413383364677429,9.7606201171875,0.7159966230392456,0.04868334159255028,0.045814719051122665
1781547279815535,128701785,-0.7441946268081665,0.0063240560702979565,0.0005849882145412266,0.6679332256317139,0.08470968902111053,-0.08134081959724426,9.729703903198242,0.7286877036094666,0.07464181631803513,0.06576701253652573
1781547279818428,128901789,-0.7433949708938599,0.006204687058925629,0.0004529942525550723,0.6688241958618164,0.08799248188734055,-0.09270604699850082,9.732977867126465,0.6793192028999329,0.13270579278469086,0.1049032062292099
1781547279819720,128918456,-0.7433912754058838,0.006207804661244154,0.00043441978050395846,0.6688281893730164,0.09592460840940475,-0.06916027516126633,9.745257377624512,0.5970768928527832,0.11320174485445023,0.029768358916044235
1781547280055484,128935123,-0.7433658838272095,0.006212620064616203,0.00040946417720988393,0.6688565015792847,0.09174402058124542,-0.06845218688249588,9.734844207763672,0.5586321949958801,0.13840463757514954,-0.12426001578569412
1781547280057211,129135127,-0.7433438897132874,0.006188837345689535,0.00038994516944512725,0.6688811182975769,0.08470604568719864,-0.08573956787586212,9.746362686157227,0.6928042769432068,-0.004495028872042894,0.06456320732831955
1781547280059349,129151794,-0.7433477640151978,0.0061836098320782185,0.00038994415081106126,0.6688768267631531,0.08820000290870667,-0.088250070810318,9.756526947021484,0.7256013751029968,0.05627750605344772,0.11220283061265945
1781547280294854,129168461,-0.7433497905731201,0.006181448698043823,0.00039790288428775966,0.6688747406005859,0.09241645038127899,-0.08396933972835541,9.729925155639648,0.7465524673461914,0.001479133265092969,0.10416044294834137
1781547280296310,129385132,-0.743340253829956,0.006118580233305693,0.00037623418029397726,0.6688858270645142,0.08622582256793976,-0.07793104648590088,9.765734672546387,0.808419942855835,0.2289327085018158,-0.14806699752807617
1781547280297483,129401799,-0.7433373332023621,0.006125464104115963,0.00037295997026376426,0.6688891053199768,0.09033848345279694,-0.07351610064506531,9.752274513244629,0.648391842842102,0.017525486648082733,0.0499255508184433
1781547280535101,129418466,-0.7433493733406067,0.006135026924312115,0.00036355864722281694,0.6688756346702576,0.07525072991847992,-0.0785871371626854,9.758259773254395,0.6062461733818054,0.03665817528963089,0.10953910648822784
1781547280539155,129618470,-0.7433401942253113,0.006214041728526354,0.00034261884866282344,0.6688851118087769,0.08508870005607605,-0.08552142232656479,9.743927955627441,0.7188460230827332,0.06993547827005386,0.11747264117002487
1781547280539671,129635137,-0.7433374524116516,0.006210253108292818,0.00034175519249401987,0.66888827085495,0.09129341691732407,-0.07643070071935654,9.73089599609375,0.7142037153244019,0.054113227874040604,0.06519071757793427
1781547280775906,129651804,-0.7433443665504456,0.006209137383848429,0.00034288252936676145,0.6688804030418396,0.08829297870397568,-0.0878245010972023,9.749241828918457,0.7100160717964172,0.03129231557250023,0.15863865613937378
1781547280778039,129868475,-0.7433550357818604,0.006172433495521545,0.00029858172638341784,0.6688689589500427,0.09337835013866425,-0.08572526276111603,9.739410400390625,0.7024602890014648,0.15649999678134918,0.032073501497507095
1781547280780095,129885142,-0.7433585524559021,0.0061753480695188046,0.00029305319185368717,0.6688650846481323,0.08914054185152054,-0.06701096892356873,9.73176097869873,0.6583680510520935,0.04719780012965202,0.08072483539581299
1781547281014923,129901809,-0.7433615922927856,0.006169753614813089,0.00029702912434004247,0.6688617467880249,0.0852639377117157,-0.06666050106287003,9.734883308410645,0.7456433176994324,0.03763145953416824,0.09517038613557816
1781547281016783,130101813,-0.7433598041534424,0.006173340138047934,0.000321217899909243,0.6688636541366577,0.08246376365423203,-0.07833324372768402,9.743208885192871,0.7120906710624695,-0.023089848458766937,0.09312135726213455
1781547281018767,130118480,-0.7433575391769409,0.006175772286951542,0.0003171428688801825,0.6688661575317383,0.095016248524189,-0.07358404248952866,9.744657516479492,0.6676397919654846,0.041742295026779175,0.08155723661184311
1781547281255425,130135147,-0.7433601021766663,0.006163715850561857,0.00031479072640649974,0.6688634753227234,0.08670157194137573,-0.08836808055639267,9.73425006866455,0.7493699193000793,0.0998062789440155,0.080225370824337
1781547281257324,130335151,-0.7433283925056458,0.006164770573377609,0.00030336191412061453,0.6688985824584961,0.08896173536777496,-0.07784330099821091,9.752775192260742,0.6536424160003662,0.10787428170442581,0.136317178606987
1781547281259348,130351818,-0.7433295845985413,0.006159881595522165,0.0002995540271513164,0.6688973307609558,0.08443067967891693,-0.07805430144071579,9.732011795043945,0.7061868906021118,0.07418077439069748,0.08277382701635361
1781547281495476,130368485,-0.7433388233184814,0.006166103761643171,0.0002978611155413091,0.6688869595527649,0.08809998631477356,-0.08023220300674438,9.753714561462402,0.6592324376106262,0.012217257171869278,0.12904958426952362
1781547281497611,130585156,-0.7432991862297058,0.006173228845000267,0.00030532098026014864,0.6689310669898987,0.08071500062942505,-0.09033499658107758,9.749274253845215,0.7124108672142029,0.015502086840569973,0.07534615695476532
1781547281498711,130601823,-0.7433043718338013,0.006174480076879263,0.0003080213791690767,0.6689252853393555,0.08196321874856949,-0.08279991894960403,9.74524211883545,0.7050471305847168,0.012377336621284485,0.13535669445991516
1781547281736120,130618490,-0.7433019876480103,0.006171257235109806,0.00031097870669327676,0.6689279079437256,0.09315304458141327,-0.09064612537622452,9.733373641967773,0.7294433116912842,0.03129231557250023,0.13675260543823242
1781547281737894,130818494,-0.7433338761329651,0.006155622657388449,0.00031831752858124673,0.668892502784729,0.0947265774011612,-0.08494922518730164,9.753386497497559,0.6981701254844666,0.05490722134709358,0.058749131858348846
1781547281739430,130835161,-0.7433314919471741,0.006154501810669899,0.00032680018921382725,0.6688953638076782,0.08802113682031631,-0.08704131841659546,9.753819465637207,0.7433636784553528,-0.0058525013737380505,0.050655510276556015
1781547281974990,130851828,-0.7433330416679382,0.006151444278657436,0.0003388920449651778,0.6688936948776245,0.0947265774011612,-0.0855536088347435,9.72723388671875,0.7702698707580566,-0.015713389962911606,0.10530021041631699
1781547281976224,131068499,-0.7433215975761414,0.006132780574262142,0.0003506902721710503,0.6689065098762512,0.08828575909137726,-0.08278921246528625,9.745051383972168,0.7083640098571777,0.07088954746723175,0.06758551299571991
1781547281978157,131085166,-0.743321418762207,0.006128170993179083,0.0003542069753166288,0.6689067482948303,0.08910120278596878,-0.07906278967857361,9.74992847442627,0.738433301448822,0.035479992628097534,0.06937839090824127
1781547282005037,131101833,-0.7433253526687622,0.006129938177764416,0.00034251087345182896,0.6689023375511169,0.08511731028556824,-0.08558221906423569,9.741138458251953,0.6359376907348633,0.08379194140434265,0.10405158996582031
1781547282006520,131301837,-0.7379686236381531,0.0058399769477546215,0.00020318475435487926,0.6748102307319641,0.04369179159402847,0.3716658651828766,9.773087501525879,-1.4513013362884521,0.9661146998405457,-191.92340087890625
1781547282008056,131318504,-0.7205169200897217,0.005988794378936291,0.00010986851702909917,0.6934120059013367,0.35202187299728394,-0.3084448277950287,9.806841850280762,-1.2145832777023315,0.5375086665153503,-175.28204345703125
1781547282034997,131335171,-0.7018393278121948,0.006011882331222296,-6.871076038805768e-05,0.7123104333877563,0.12822332978248596,-0.19658395648002625,9.636650085449219,-1.0488866567611694,1.5709154605865479,-182.59461975097656
1781547282036440,131351838,-0.6844188570976257,0.0058876280672848225,-0.0002102554717566818,0.7290658354759216,0.11012192070484161,0.028076468035578728,9.774531364440918,-0.1053488627076149,2.0246758460998535,-166.09422302246094
1781547282037878,131368505,-0.6695994734764099,0.006219809874892235,-0.0001414795988239348,0.7426968812942505,-0.05948588252067566,0.1435418277978897,9.779446601867676,-1.0983083248138428,-1.3834097385406494,-138.3544921875
1781547282274987,131385172,-0.6587826013565063,0.006376212928444147,-0.00013762133312411606,0.7523067593574524,-0.08532962203025818,0.8394981026649475,9.709111213684082,-0.4534117579460144,-0.3627908527851105,-99.39730834960938
1781547282276574,131401839,-0.6520018577575684,0.006472523789852858,-0.00014732260024175048,0.7581900954246521,-0.09149215370416641,0.7539189457893372,9.821578025817871,-0.07840152084827423,-0.15782755613327026,-61.638065338134766
1781547282278191,131418506,-0.6497499346733093,0.006327281706035137,-0.00016437552403658628,0.7601220607757568,0.19441641867160797,0.3414202630519867,9.7261962890625,1.1631577014923096,0.9538120031356812,-20.315744400024414
1781547282515373,131435173,-0.6527751684188843,0.006609995849430561,-0.00019956415053457022,0.7575232982635498,0.5614646673202515,0.07800453901290894,9.766008377075195,-0.6192782521247864,-1.4047577381134033,27.503173828125
1781547282516972,131601843,-0.6767171621322632,0.006581756751984358,0.0001015592715702951,0.7362141013145447,0.0926702618598938,-0.08293582499027252,9.746644973754883,0.7195695638656616,-0.046384599059820175,0.13899371027946472
1781547282519600,131618510,-0.6767145395278931,0.006579086650162935,0.00010096751793753356,0.7362165451049805,0.10222582519054413,-0.07880531996488571,9.732158660888672,0.7081206440925598,0.04835037142038345,0.05826248973608017
1781547282755965,131635177,-0.6767127513885498,0.006585994735360146,9.66423176578246e-05,0.7362180948257446,0.08367609977722168,-0.08999525755643845,9.736947059631348,0.6446459889411926,0.017198927700519562,0.06746384501457214
1781547282756679,131835181,-0.676741361618042,0.0066106244921684265,8.099393744487315e-05,0.7361916303634644,0.10049489140510559,-0.09352855384349823,9.748015403747559,0.6589058637619019,0.012659077532589436,0.12276805937290192
1781547282757751,131851848,-0.6767154932022095,0.006609986070543528,9.032305388245732e-05,0.7362154722213745,0.09287410229444504,-0.07706369459629059,9.721446990966797,0.7477051019668579,-0.007120330352336168,-0.15986165404319763
1781547282994902,131868515,-0.676603376865387,0.006609479431062937,0.00012789688480552286,0.7363184690475464,0.08816999942064285,-0.18717920780181885,9.74045181274414,0.8861545324325562,-0.13568328320980072,-0.9650353193283081
1781547282997260,132085186,-0.7294512987136841,0.006708712782710791,0.0008483074489049613,0.6839998960494995,0.219408318400383,-0.02754153683781624,9.729825973510742,1.933864951133728,-3.4496910572052,-22.432077407836914
1781547282999277,132101853,-0.7291638851165771,0.006990665104240179,0.0014173896051943302,0.6843023896217346,0.5238509774208069,-0.1876591145992279,9.779996871948242,1.9460852146148682,-4.136515140533447,-2.809739112854004
1781547283237811,132118520,-0.7282201051712036,0.00697068776935339,0.0013189396122470498,0.6853070855140686,0.2966470718383789,-0.2884135842323303,9.677324295043945,0.2807216942310333,0.6581377387046814,-9.389681816101074
1781547283238585,132318524,-0.68217933177948,0.005729263182729483,-0.0003283158876001835,0.7311628460884094,0.2973904311656952,0.17177070677280426,9.758903503417969,0.6800453662872314,0.9073737859725952,-61.10466766357422
1781547283239983,132335191,-0.6791762113571167,0.005871701054275036,-0.00024350298917852342,0.7339522242546082,0.6709268093109131,0.5218169689178467,9.78418254852295,0.345740407705307,-0.9657295346260071,-28.100744247436523
1781547283475130,132351858,-0.6760724186897278,0.005746578332036734,-0.0003932177205570042,0.7368131279945374,0.29025033116340637,0.19960902631282806,9.713410377502441,0.4072815179824829,1.482979655265808,-28.93218994140625
1781547283477369,132568529,-0.5499556660652161,-0.014085594564676285,-0.0036328507121652365,0.8350675106048584,-1.1584678888320923,0.5294585824012756,9.674222946166992,3.9377799034118652,1.4097193479537964,-91.1091537475586
1781547283478856,132585196,-0.5390294790267944,-0.015440507791936398,-0.004753047600388527,0.8421322107315063,-1.0820379257202148,0.41634294390678406,9.574923515319824,0.6223936080932617,11.636055946350098,-89.43870544433594
1781547283716219,132601863,-0.527805745601654,-0.017573432996869087,-0.00551243219524622,0.849165678024292,-0.35540178418159485,0.4768335521221161,9.954328536987305,5.625300407409668,14.81609058380127,-90.98200225830078
1781547283717239,132801867,-0.46231597661972046,-0.036895718425512314,-0.009408962912857533,0.885897696018219,-0.15737095475196838,0.09838059544563293,9.814432144165039,-7.15377140045166,0.9817819595336914,-25.274429321289062
1781547283718727,132818534,-0.46023330092430115,-0.03651878237724304,-0.011193929240107536,0.8869761824607849,-0.6703329086303711,0.0958879217505455,9.681985855102539,-10.773663520812988,3.269676923751831,-16.508201599121094
1781547283955528,132835201,-0.4593525826931,-0.03655506670475006,-0.013041258789598942,0.8874059915542603,-0.38785412907600403,0.1948418915271759,9.747209548950195,-10.198112487792969,6.057298183441162,-7.109066486358643
1781547283956666,133035205,-0.45354002714157104,0.0064995368011295795,-0.0014768793480470777,0.8912111520767212,0.11407028138637543,-0.07475346326828003,9.738606452941895,0.8198304176330566,0.11768394708633423,0.033520616590976715
1781547283958304,133051872,-0.4535544216632843,0.006490060593932867,-0.0014883867697790265,0.8912039995193481,0.11108755320310593,-0.08233505487442017,9.724995613098145,0.6583360433578491,0.12479787319898605,0.1940930336713791
1781547284196617,133068539,-0.45354893803596497,0.0064835501834750175,-0.0014976466773077846,0.8912068009376526,0.09131129831075668,-0.07559029012918472,9.731840133666992,0.6621010303497314,0.10027371346950531,0.04050648584961891
1781547284198092,133285210,-0.4535719156265259,0.00626133568584919,-0.0015631918795406818,0.891196608543396,0.09751959890127182,-0.09031711518764496,9.762742042541504,0.7220668792724609,0.039334703236818314,0.11777359247207642
1781547284199048,133301877,-0.4535643458366394,0.006255769636482,-0.0015628045657649636,0.8912004828453064,0.09002386778593063,-0.08739893138408661,9.726136207580566,0.7182505130767822,0.06438391655683517,0.02428724244236946
1781547284435988,133318544,-0.453571081161499,0.006249295547604561,-0.001561639946885407,0.8911970853805542,0.08880093693733215,-0.0692460760474205,9.726921081542969,0.7263441681861877,0.06711167097091675,0.13433219492435455
1781547284437928,133518548,-0.45357704162597656,0.00626438669860363,-0.0015352701302617788,0.8911939859390259,0.09209806472063065,-0.07929524779319763,9.756569862365723,0.682840883731842,-0.001229409477673471,-0.0022283047437667847
1781547284439994,133535215,-0.45356959104537964,0.006266469601541758,-0.001545002218335867,0.8911977410316467,0.07848702371120453,-0.08767429739236832,9.756172180175781,0.6323071122169495,0.04909314587712288,0.02624661661684513
1781547284675960,133551882,-0.4535802900791168,0.006269083358347416,-0.001542867161333561,0.8911923170089722,0.10288374871015549,-0.07874093949794769,9.73128604888916,0.704073965549469,0.008202468045055866,0.16524675488471985
1781547284677463,133768553,-0.441281795501709,0.00582375843077898,-0.001499741105362773,0.8973487019538879,0.10823283344507217,-0.3169068396091461,9.766677856445312,0.32167837023735046,0.1133817583322525,-43.17166519165039
1781547284679225,133785220,-0.4419131875038147,0.006264456082135439,-0.0015157925663515925,0.8970350027084351,0.2927289605140686,0.26082083582878113,9.720185279846191,-0.7146968245506287,-2.6582398414611816,4.926174163818359
1781547284922649,133801887,-0.44398894906044006,0.006593374535441399,-0.001472249161452055,0.8960069417953491,-0.02012089639902115,-0.07584396004676819,9.799227714538574,0.047044169157743454,-2.1956124305725098,16.003156661987305
1781547284925825,134001891,-0.46011337637901306,0.002616794314235449,-0.009863942861557007,0.8878019452095032,0.4010156989097595,-0.05105146765708923,9.582283973693848,-11.180323600769043,9.728025436401367,4.917226314544678
1781547284927588,134018558,-0.4613560736179352,0.0014210663503035903,-0.011298585683107376,0.8871422410011292,-0.25953301787376404,-0.21598924696445465,10.034183502197266,-4.298365592956543,11.771639823913574,9.862454414367676
1781547285156127,134035225,-0.4631090760231018,-0.0004812645784113556,-0.013828638009727001,0.886193573474884,-0.2532053589820862,0.023262400180101395,9.808979034423828,-8.75584888458252,19.51357078552246,13.95637035369873
1781547285157924,134235229,-0.4805094301700592,-0.02771179936826229,-0.024842368438839912,0.8761998414993286,-0.6519577503204346,-0.2061150223016739,9.740955352783203,0.2893787920475006,4.3821492195129395,10.890082359313965
1781547285159590,134251896,-0.4813379943370819,-0.02835792861878872,-0.02533268742263317,0.8757102489471436,-0.8343092799186707,-0.186271533370018,9.750778198242188,-0.36221495270729065,5.495187282562256,6.708550930023193
1781547285395199,134268563,-0.4818348288536072,-0.02845284342765808,-0.026706146076321602,0.8753930926322937,-0.9769049286842346,-0.10709603875875473,9.965531349182129,-7.408962249755859,5.1231369972229,3.8729679584503174
1781547285397455,134485234,-0.4901597499847412,-0.021094439551234245,-0.03232758119702339,0.8707776665687561,-0.7958334684371948,-0.1770784556865692,9.417645454406738,-4.87821102142334,-9.763593673706055,9.8797025680542
1781547285399822,134501901,-0.49190810322761536,-0.020038126036524773,-0.03253207355737686,0.869808554649353,-0.732936441898346,-0.3141903877258301,9.732255935668945,-4.55490255355835,-5.852161407470703,13.551557540893555
1781547285635068,134518568,-0.493366003036499,-0.018526609987020493,-0.032407719641923904,0.8690206408500671,-0.6522617340087891,-0.4032631516456604,9.751937866210938,-4.047244548797607,-9.64663314819336,11.144816398620605
1781547285636993,134718572,-0.5044062733650208,0.058757051825523376,0.004531307145953178,0.8614534139633179,1.1244065761566162,-0.9981362819671631,7.962981700897217,6.132601737976074,-45.18645477294922,2.092374324798584
1781547285638357,134735239,-0.5030679106712341,0.056971658021211624,0.003914317116141319,0.8623585104942322,0.874547004699707,-1.0434240102767944,7.650832176208496,2.6672067642211914,13.069238662719727,-10.78952693939209
1781547285876172,134751906,-0.5005886554718018,0.049104977399110794,-0.000918908859603107,0.8642911911010742,0.8781684637069702,-0.6984789371490479,8.644024848937988,-1.7712997198104858,64.08114624023438,-19.62019920349121
1781547285877506,134968577,-0.5147548913955688,0.01476922444999218,-0.002037367317825556,0.8572080135345459,0.3295677900314331,-0.49280017614364624,9.670881271362305,21.798927307128906,9.244139671325684,11.726643562316895
1781547285879261,134985244,-0.5151636600494385,0.01412084698677063,0.0005748370313085616,0.8569755554199219,0.30444636940956116,-0.14597976207733154,10.368024826049805,18.426727294921875,-5.4226508140563965,3.0580387115478516
1781547286116028,135001911,-0.5150164365768433,0.015581728890538216,0.0004181743715889752,0.8570388555526733,0.139643594622612,-0.05639905855059624,10.804931640625,-5.413502216339111,-8.01672649383545,-0.9877027869224548
1781547286117286,135201915,-0.50436931848526,0.012072158977389336,-0.027598002925515175,0.8629631400108337,-0.6131749749183655,-0.6466690897941589,11.986442565917969,-2.965663433074951,45.10240173339844,-33.688812255859375
1781547286119377,135218582,-0.5007159113883972,0.013231388293206692,-0.02914266660809517,0.8650203347206116,-0.30837738513946533,-0.09426605701446533,12.53591251373291,-12.398113250732422,-0.6273596882820129,-28.819509506225586
1781547286357169,135235249,-0.4991808533668518,0.0187094584107399,-0.03012263961136341,0.865772545337677,0.26507332921028137,-0.14321602880954742,11.187270164489746,-23.977155685424805,-28.80040168762207,-12.64444637298584
1781547286358961,135435253,-0.49123653769493103,0.12295114248991013,-0.08642054349184036,0.857964277267456,1.6704984903335571,-2.16664719581604,9.7136869430542,-75.32718658447266,-13.953451156616211,6.642415523529053
1781547286360663,135451920,-0.4915409982204437,0.12971150875091553,-0.0964152067899704,0.8557265400886536,1.4694948196411133,-2.3395206928253174,9.781474113464355,-82.1667709350586,-8.163885116577148,13.8689546585083
1781547286595011,135468587,-0.49211201071739197,0.13656823337078094,-0.10761045664548874,0.8529924750328064,1.152098298072815,-2.8893072605133057,10.172676086425781,-89.64835357666016,-5.2924699783325195,18.121078491210938
1781547286596614,135685258,-0.30197563767433167,0.07886695861816406,-0.691775381565094,0.6511826515197754,-1.6895923614501953,-7.325713157653809,2.8129360675811768,-296.7771911621094,317.55633544921875,-6.072780609130859
1781547286598189,135701925,-0.27364856004714966,0.06821716576814651,-0.7241155505180359,0.6293814182281494,-1.011849284172058,-7.511830806732178,3.0788321495056152,-241.12054443359375,237.85772705078125,-13.300617218017578
1781547286836461,135718592,-0.25404977798461914,0.06362713128328323,-0.7444047927856445,0.6142258048057556,-0.879633367061615,-7.893302917480469,3.134591579437256,-163.1270294189453,148.55657958984375,-23.85303497314453
1781547286839468,135918596,-0.19136051833629608,0.06129880249500275,-0.9111194014549255,0.359841912984848,-4.455521583557129,-4.178467750549316,-13.76159381866455,53.371070861816406,69.25879669189453,11.970993041992188
1781547286839914,135935263,-0.17756471037864685,0.05107259750366211,-0.911022961139679,0.36864739656448364,-3.4425668716430664,-5.374622344970703,-10.965741157531738,63.765525817871094,115.34113311767578,18.37828826904297
1781547287076483,135951930,-0.16133615374565125,0.03996146842837334,-0.910518229007721,0.3785918056964874,-2.8093678951263428,-7.003078460693359,-7.3868632316589355,72.16600799560547,132.72593688964844,16.22215461730957
1781547287077774,136168601,-0.2282901257276535,0.0592765212059021,-0.9101521968841553,0.34057965874671936,-6.762223720550537,-4.2410101890563965,-15.37891960144043,77.6778793334961,81.0848388671875,-6.0083160400390625
1781547287078352,136185268,-0.2149360179901123,0.053754325956106186,-0.9079074859619141,0.3558344542980194,-4.706984519958496,-4.97737455368042,-9.674866676330566,104.67105102539062,99.22782897949219,-21.504024505615234
1781547287315319,136201935,-0.20327895879745483,0.04853597655892372,-0.9056167006492615,0.3690282702445984,-2.7925899028778076,-5.831800937652588,-5.463609218597412,92.0985336303711,87.05888366699219,-16.21982765197754
1781547287317837,136401939,-0.2473311722278595,0.002879769541323185,-0.9344571232795715,0.2561447024345398,-6.728201866149902,-3.859438896179199,-12.360918045043945,-106.97340393066406,-80.13365936279297,59.07335662841797
1781547287319039,136418606,-0.2538052499294281,0.002040673978626728,-0.9368309378623962,0.24068209528923035,-5.652541160583496,-3.5256776809692383,-10.73681354522705,-101.2656021118164,-36.35198974609375,43.21134567260742
1781547287556747,136435273,-0.25323686003685,0.0008967667818069458,-0.9400362968444824,0.22848039865493774,-5.709660530090332,-3.8127527236938477,-10.544377326965332,-81.19889068603516,11.010978698730469,27.83941650390625
1781547287558113,136635277,-0.34641510248184204,0.046350423246622086,-0.9354690909385681,0.052414461970329285,-5.875710487365723,-1.545498013496399,-5.507822036743164,-333.660400390625,-364.0180358886719,-84.78646087646484
1781547287559406,136651944,-0.3565768003463745,0.06111406534910202,-0.9313890337944031,0.040421515703201294,-7.19244384765625,2.799988269805908,-18.151639938354492,-106.89199829101562,-84.1786117553711,-63.95606994628906
1781547287795606,136668611,-0.3382265567779541,0.06852272152900696,-0.9377882480621338,0.038232073187828064,-5.617537975311279,-1.708940863609314,-4.8321404457092285,-40.9632568359375,130.26148986816406,-44.41585159301758
1781547287796989,136885282,-0.2940197288990021,0.15092268586158752,-0.9436927437782288,0.014823359437286854,-5.622221946716309,-1.2600315809249878,-8.26354694366455,28.332237243652344,-10.955968856811523,-25.137271881103516
1781547287798113,136901949,-0.2955362796783447,0.15393847227096558,-0.942650318145752,0.0193161703646183,-5.883870601654053,-1.044909119606018,-8.152016639709473,25.448833465576172,-7.549423694610596,-29.505943298339844
1781547288037294,136918616,-0.29494625329971313,0.1600015014410019,-0.9417632222175598,0.022128645330667496,-5.507532596588135,-1.063256025314331,-8.213079452514648,6.116852760314941,4.237237453460693,-45.95748519897461
1781547288039026,137118620,-0.2823968231678009,0.25370654463768005,-0.9232202768325806,0.059587202966213226,-5.422071933746338,-1.8551530838012695,-8.803861618041992,-0.5588206648826599,10.215286254882812,-36.381385803222656
1781547288042879,137135287,-0.28106361627578735,0.25679707527160645,-0.9226330518722534,0.06170956417918205,-5.247645854949951,-1.8050711154937744,-8.103160858154297,6.097471237182617,9.812833786010742,-25.23969078063965
1781547288275708,137151954,-0.27706819772720337,0.25886377692222595,-0.923341691493988,0.06053496152162552,-4.9773640632629395,-1.8675464391708374,-8.034210205078125,-18.087175369262695,23.82005500793457,-11.216673851013184
1781547288277277,137368625,-0.2410965859889984,0.2292701154947281,-0.9388911724090576,0.08827485144138336,-7.192627906799316,-5.054285049438477,-12.101083755493164,40.61380386352539,59.644203186035156,17.42174530029297
1781547288279431,137385292,-0.23029494285583496,0.22585289180278778,-0.9419962763786316,0.09273168444633484,-7.1579270362854,-5.521833896636963,-13.577742576599121,16.251386642456055,84.04907989501953,13.066490173339844
1781547288516140,137401959,-0.21892859041690826,0.22380907833576202,-0.944642186164856,0.0981438159942627,-7.143015384674072,-5.796246528625488,-14.609773635864258,19.678173065185547,87.58953094482422,1.5867453813552856
1781547288516707,137601963,0.07778307795524597,0.31052887439727783,-0.8919593691825867,0.3192669451236725,0.12531688809394836,-3.434521198272705,-6.786677360534668,128.36985778808594,203.6248321533203,-179.8728485107422
1781547288755098,137618630,0.10569463670253754,0.3279934227466583,-0.8742826581001282,0.3418773114681244,1.7957534790039062,-2.938788890838623,-5.779618263244629,128.0060577392578,190.78326416015625,-194.0604248046875
1781547288756763,137635297,0.1301955133676529,0.3487204313278198,-0.8538697361946106,0.3638007342815399,2.9086906909942627,-2.4450502395629883,-5.5298871994018555,140.37303161621094,163.04823303222656,-212.3334197998047
1781547288758314,137818634,0.36001279950141907,0.5067084431648254,-0.6513293981552124,0.43521127104759216,5.044692039489746,-1.308544397354126,-2.4986634254455566,-35.570064544677734,95.56794738769531,-94.49150085449219
1781547288996247,137851968,0.39483755826950073,0.5064092874526978,-0.6307168006896973,0.43571844696998596,4.711086750030518,-1.526361346244812,-1.2559183835983276,-29.057924270629883,107.79954528808594,-84.40574645996094
1781547288998039,137868635,0.4129091501235962,0.5044200420379639,-0.6209317445755005,0.43532904982566833,4.565584182739258,-1.7765642404556274,-0.5321041345596313,-39.996158599853516,109.72467803955078,-80.62027740478516
1781547289001347,138085306,0.4958343803882599,0.5035953521728516,-0.5342590808868408,0.46379798650741577,8.749580383300781,2.9519593715667725,3.6621272563934326,14.302303314208984,-50.175228118896484,53.347740173339844
1781547289235502,138101973,0.48512038588523865,0.5043678879737854,-0.5424749851226807,0.4647510349750519,8.185197830200195,3.647045373916626,1.9654405117034912,17.73529624938965,-66.48480987548828,63.14324188232422
1781547289238265,138318644,0.1259707510471344,0.31225281953811646,-0.5916779637336731,0.7324942946434021,-3.9633634090423584,-9.538605690002441,-1.3651798963546753,176.8144989013672,103.91123962402344,295.0764465332031
1781547289239576,138335311,0.09723292291164398,0.27439066767692566,-0.5828225612640381,0.7586662769317627,-4.141664028167725,-11.366363525390625,-1.3487329483032227,180.8475341796875,137.8037872314453,302.71490478515625
1781547289475551,138351978,0.07283570617437363,0.23192042112350464,-0.571595311164856,0.783701479434967,-4.895233154296875,-13.573647499084473,0.06611037254333496,177.41250610351562,178.69195556640625,293.263916015625
1781547289477994,138568649,0.10636579990386963,-0.2111046463251114,-0.31539809703826904,0.9190464615821838,-2.6717748641967773,-9.314069747924805,15.755863189697266,-66.91873168945312,232.72129821777344,75.7447509765625
1781547289480315,138585316,0.09877226501703262,-0.24307455122470856,-0.3375656306743622,0.903996467590332,-1.5143035650253296,-9.275650024414062,15.413782119750977,-206.32969665527344,191.19192504882812,74.23544311523438
1781547289717418,138601983,0.0856819748878479,-0.2643914818763733,-0.36704960465431213,0.8877115845680237,-1.0559759140014648,-8.479954719543457,12.379176139831543,-256.6551513671875,109.31060028076172,70.61678314208984
1781547289718565,138801987,-0.026464376598596573,-0.17109335958957672,-0.5615602135658264,0.8091219067573547,-3.678867816925049,-8.369877815246582,5.013099193572998,-146.9759063720703,-122.36565399169922,-61.283748626708984
1781547289719158,138818654,-0.03290627896785736,-0.1508127748966217,-0.5782603621482849,0.8011173605918884,-3.31912899017334,-8.036829948425293,3.965923547744751,-134.38790893554688,-125.21373748779297,-60.544620513916016
1781547289955849,138835321,-0.039030998945236206,-0.12961329519748688,-0.5905901193618774,0.7955384850502014,-3.115255117416382,-8.116703033447266,3.24745774269104,-100.54923248291016,-132.51773071289062,-61.96432876586914
1781547289957615,139035325,-0.08995439112186432,0.06759881973266602,-0.7088985443115234,0.6962777376174927,-0.923503577709198,-7.43416166305542,-2.7772252559661865,-8.339456558227539,-21.26582145690918,-40.157920837402344
1781547289958984,139051992,-0.0878019705414772,0.0725511834025383,-0.7040007710456848,0.7010074257850647,-1.0222604274749756,-7.743447303771973,-2.422877550125122,43.16780471801758,-14.017318725585938,-39.576507568359375
1781547290196836,139068659,-0.08438774198293686,0.07457748055458069,-0.6967553496360779,0.7084140777587891,-0.9142360091209412,-8.362359046936035,-1.7280690670013428,68.58325958251953,6.111233234405518,-34.28410339355469
1781547290197564,139285330,-0.016072142869234085,0.0485730804502964,-0.5798873901367188,0.8130892515182495,1.5843279361724854,-10.176164627075195,4.356568813323975,143.569091796875,-16.493274688720703,-55.169898986816406
1781547290198578,139301997,-0.010753132402896881,0.05416279658675194,-0.5590046048164368,0.8273244500160217,1.9335986375808716,-9.225481986999512,5.2684197425842285,171.8160400390625,-7.562370300292969,-60.48515701293945
1781547290435135,139318664,-0.005385818891227245,0.05850478634238243,-0.5320382714271545,0.8446801900863647,2.688302755355835,-8.195486068725586,7.355607032775879,218.50225830078125,0.43386131525039673,-58.46092224121094
1781547290436856,139518668,-0.11624795198440552,0.2378222793340683,-0.3727256655693054,0.8893840909004211,4.1733574867248535,-5.6021623611450195,4.874406337738037,36.473663330078125,-156.76710510253906,47.4466438293457
1781547290438543,139535335,-0.13537456095218658,0.2546747624874115,-0.3649909496307373,0.8852103352546692,4.319303512573242,-5.281301975250244,4.723828315734863,55.05206298828125,-165.01722717285156,64.6319808959961
1781547290675737,139552002,-0.1606055051088333,0.26863205432891846,-0.36016640067100525,0.8788197636604309,3.484179735183716,-5.658421039581299,4.462090492248535,45.167049407958984,-163.8884735107422,116.2210922241211
1781547290678035,139768673,-0.3935514986515045,0.31675204634666443,-0.2838342487812042,0.8149998784065247,-2.082984447479248,-7.922893524169922,5.4292192459106445,52.157222747802734,-20.341468811035156,113.91761016845703
1781547290679792,139785340,-0.4079448878765106,0.31027764081954956,-0.27742183208465576,0.8126175403594971,-1.6877120733261108,-7.91874885559082,4.880247116088867,80.85317993164062,-14.314355850219727,85.85694885253906
1781547290916753,139802007,-0.42022866010665894,0.3019583225250244,-0.2685184180736542,0.8124827146530151,-1.3706649541854858,-7.626817226409912,5.216310024261475,99.73658752441406,-2.1819663047790527,65.96147918701172
1781547290919618,140002011,-0.48424479365348816,0.2368563413619995,-0.18481354415416718,0.8217368721961975,1.3699920177459717,-6.037844657897949,8.97006893157959,40.15073013305664,3.153254985809326,-0.444997638463974
1781547290920914,140018678,-0.4851045310497284,0.2351752519607544,-0.18323548138141632,0.8220657706260681,1.5009958744049072,-6.41893196105957,9.176565170288086,17.030202865600586,3.662984848022461,3.375392198562622
1781547291155410,140035345,-0.4855332672595978,0.23480966687202454,-0.18310534954071045,0.8219462633132935,1.5654774904251099,-6.585833549499512,8.985982894897461,3.198482036590576,0.873950183391571,3.117136001586914
1781547291157147,140235349,-0.4585936963558197,0.24891060590744019,-0.17765459418296814,0.8343713283538818,2.4022765159606934,-5.148029804229736,8.46217155456543,-20.0988826751709,-5.817652702331543,-6.266374588012695
1781547291158826,140252016,-0.45725032687187195,0.2514629065990448,-0.17975740134716034,0.8338927030563354,2.4799752235412598,-5.111783027648926,8.194806098937988,-22.289152145385742,-7.218173027038574,-5.674543380737305
1781547291395594,140268683,-0.4561782777309418,0.2538242042064667,-0.18092699348926544,0.8335113525390625,2.45522141456604,-4.919041156768799,7.805495262145996,-15.7494478225708,-9.223489761352539,-5.802052021026611
1781547291397394,140485354,-0.43338990211486816,0.32638922333717346,-0.241535946726799,0.8045526742935181,1.8268362283706665,-7.796884059906006,6.385539531707764,-54.615196228027344,-16.30971908569336,-17.65838623046875
1781547291399170,140502021,-0.4282740354537964,0.3324277698993683,-0.24755585193634033,0.8029887676239014,1.524700403213501,-8.211014747619629,7.212498188018799,-64.66151428222656,-10.509333610534668,-20.14323616027832
1781547291545215,140518688,-0.42182445526123047,0.3407496213912964,-0.2547666132450104,0.8006553649902344,1.1200257539749146,-8.554000854492188,7.658369064331055,-82.31602478027344,-19.099672317504883,-26.412927627563477
1781547291546313,140718692,-0.22361953556537628,0.39766401052474976,-0.3518466353416443,0.8173511624336243,1.0531210899353027,-6.906325817108154,2.7134299278259277,-104.00162506103516,108.21273040771484,-101.50330352783203
1781547291547386,140735359,-0.20008069276809692,0.3898659646511078,-0.3581368923187256,0.8244463205337524,1.1886181831359863,-6.948282241821289,2.6546597480773926,-69.76174926757812,129.80029296875,-107.30619049072266
1781547291786654,140752026,-0.17487488687038422,0.3788376748561859,-0.3612605631351471,0.8339021801948547,0.9187922477722168,-6.695806503295898,3.4842443466186523,-46.00463104248047,154.19766235351562,-120.54669189453125
1781547291788549,140868695,0.010681433603167534,0.2570632994174957,-0.3838633894920349,0.8868226408958435,4.084320068359375,-4.9510345458984375,6.621896266937256,-31.291826248168945,169.50552368164062,-84.69357299804688
1781547291790682,140885362,0.031138397753238678,0.23894792795181274,-0.3886112570762634,0.8893349766731262,4.08901309967041,-5.052847385406494,7.108209609985352,-58.90968704223633,168.55252075195312,-68.473388671875
1781547292025326,140902029,0.05135638266801834,0.2208242565393448,-0.39490416646003723,0.8903096318244934,4.351107597351074,-4.759651184082031,7.18220853805542,-72.07386016845703,165.1110382080078,-64.76891326904297
1781547292028633,141118700,0.07973338663578033,0.12906283140182495,-0.39413246512413025,0.906447172164917,4.779346942901611,-6.83734130859375,9.742901802062988,-27.760713577270508,-39.95895767211914,69.83804321289062
1781547292029590,141135367,0.06958451122045517,0.1296592801809311,-0.4018794894218445,0.9037923216819763,4.726534366607666,-6.9376540184021,8.736863136291504,-45.49076843261719,-37.78432846069336,67.16496276855469
1781547292266232,141152034,0.060029033571481705,0.13070501387119293,-0.40670549869537354,0.9021666646003723,4.809298992156982,-7.195683002471924,8.135308265686035,-24.81619644165039,-36.61806869506836,60.130008697509766
1781547292266875,141352038,-0.025746677070856094,0.24156199395656586,-0.3701799809932709,0.8966344594955444,5.835021018981934,-5.852646827697754,6.393022537231445,-1.646896243095398,-120.56248474121094,29.145893096923828
1781547292268812,141368705,-0.037553299218416214,0.2553461790084839,-0.3674565553665161,0.8935128450393677,5.570407867431641,-5.6871657371521,5.393693923950195,26.618900299072266,-120.57878112792969,33.97976303100586
1781547292506327,141385372,-0.049348026514053345,0.26861897110939026,-0.3621090054512024,0.8912277221679688,5.118679523468018,-6.173847198486328,5.479923248291016,44.97127151489258,-116.60855865478516,30.383861541748047
1781547292508894,141585376,-0.17819702625274658,0.40433990955352783,-0.3433632254600525,0.8287691473960876,4.302987575531006,-5.363758087158203,3.437459707260132,77.5948715209961,-77.4336929321289,35.45431137084961
1781547292509541,141602043,-0.19185681641101837,0.40804338455200195,-0.3421875536441803,0.8243788480758667,3.280385971069336,-6.506406307220459,4.606683254241943,30.493192672729492,-66.84986877441406,71.45467376708984
1781547292745254,141618710,-0.2037835419178009,0.413269966840744,-0.3458862006664276,0.8173396587371826,2.9397404193878174,-7.150045871734619,4.319076061248779,-10.23523235321045,-72.41288757324219,75.20952606201172
1781547292746323,141835381,-0.336823046207428,0.4044005274772644,-0.30076441168785095,0.7953316569328308,2.2415335178375244,-7.615396022796631,4.345355987548828,81.4782943725586,11.851466178894043,26.41449737548828
1781547292747425,141852048,-0.34343221783638,0.3966423571109772,-0.28994834423065186,0.8004127144813538,2.253875970840454,-7.318660736083984,4.89352560043335,106.7762680053711,17.926517486572266,10.445775032043457
1781547292985322,141868715,-0.34886226058006287,0.3880198895931244,-0.2784099578857422,0.8063653707504272,2.46798038482666,-6.930606842041016,5.854617595672607,111.31439971923828,25.70075225830078,1.6414973735809326
1781547292987099,142068719,-0.4050726294517517,0.308099627494812,-0.1887378692626953,0.8398631811141968,3.0581445693969727,-6.0144944190979,8.426434516906738,55.300498962402344,6.9299187660217285,5.44460916519165
1781547292989420,142085386,-0.40836018323898315,0.3043750822544098,-0.185041144490242,0.8404515385627747,3.044232130050659,-6.030277252197266,8.320186614990234,40.18083190917969,8.186878204345703,14.386099815368652
1781547293225177,142102053,-0.4117851257324219,0.3009055554866791,-0.18293145298957825,0.8404917120933533,2.9716250896453857,-6.261660099029541,8.396869659423828,29.88283920288086,9.842193603515625,19.71404266357422
1781547293226639,142318724,-0.41187503933906555,0.3055916726589203,-0.18898120522499084,0.8374128341674805,2.8009958267211914,-5.968915939331055,7.522450923919678,-22.739322662353516,-3.7298567295074463,-4.700926303863525
1781547293228586,142335391,-0.40983542799949646,0.3068515658378601,-0.19005237519741058,0.8377102613449097,2.7342920303344727,-6.170483589172363,7.767803192138672,-12.904536247253418,-1.0104092359542847,-11.977920532226562
1781547293375540,142352058,-0.4072292745113373,0.30814749002456665,-0.19065797328948975,0.838367760181427,2.6587603092193604,-6.368737697601318,8.273719787597656,-11.047911643981934,-1.033601999282837,-17.288671493530273
1781547293377333,142552062,-0.32841089367866516,0.3810347616672516,-0.2525343894958496,0.8265510201454163,2.339374542236328,-6.6315507888793945,6.862611293792725,-121.07728576660156,-23.125925064086914,-23.703393936157227
1781547293379024,142568729,-0.31903234124183655,0.3904467523097992,-0.26773521304130554,0.8210291862487793,2.3040482997894287,-6.343661785125732,5.048031806945801,-141.07760620117188,-17.472312927246094,-17.47414207458496
1781547293615988,142585396,-0.3092021346092224,0.3965177834033966,-0.28268566727638245,0.8168585896492004,2.315889596939087,-6.55972146987915,3.5842854976654053,-131.05787658691406,5.300932884216309,-17.52322769165039
1781547293617613,142702065,-0.23904895782470703,0.3457431197166443,-0.3103437125682831,0.8526462912559509,1.6918033361434937,-4.547773361206055,2.490987777709961,76.45915222167969,110.1568374633789,-63.27217483520508
1781547293619858,142718732,-0.23108090460300446,0.3279868960380554,-0.29897868633270264,0.865817129611969,1.640074610710144,-3.381213665008545,3.994276762008667,105.80164337158203,133.61105346679688,-57.68326187133789
1781547293765941,142735399,-0.22505782544612885,0.30814340710639954,-0.2880624830722809,0.878304123878479,3.118927001953125,-3.077131748199463,5.845714092254639,109.43472290039062,141.19956970214844,-39.7050895690918
1781547293768121,142935403,-0.28286880254745483,0.18918803334236145,-0.17725631594657898,0.9234579801559448,5.79973030090332,-4.033627986907959,10.584965705871582,49.12277603149414,-5.105788230895996,57.07110595703125
1781547293770015,142952070,-0.2933645248413086,0.18802006542682648,-0.17367860674858093,0.9210987091064453,5.50428581237793,-4.328948497772217,9.639762878417969,36.47408676147461,-15.440580368041992,68.042724609375
1781547294006179,142968737,-0.30462053418159485,0.18686939775943756,-0.17203569412231445,0.9179823398590088,5.147594451904297,-4.2870073318481445,9.210369110107422,24.26105499267578,-13.518431663513184,76.8754653930664
1781547294007987,143085406,-0.37318190932273865,0.20886258780956268,-0.14062908291816711,0.892937183380127,3.151190757751465,-4.9421515464782715,7.904273509979248,30.01698112487793,-29.77499771118164,40.67348098754883
1781547294009712,143102073,-0.37871038913726807,0.20930860936641693,-0.13454556465148926,0.8914412260055542,3.097099781036377,-4.948026180267334,8.626688957214355,43.4221305847168,-25.793689727783203,28.69426727294922
1781547294245327,143118740,-0.3825158476829529,0.21065014600753784,-0.12628886103630066,0.8907082080841064,3.304438591003418,-4.7672834396362305,9.1455659866333,52.64219665527344,-34.246849060058594,12.190366744995117
1781547294249056,143335411,-0.3790017068386078,0.27043697237968445,-0.02723032981157303,0.8845800757408142,4.742733001708984,-2.4466257095336914,8.639018058776855,13.57901382446289,-22.260652542114258,-25.597848892211914
1781547294250147,143352078,-0.377733439207077,0.2722618877887726,-0.023749511688947678,0.8846628665924072,4.597638130187988,-2.176861524581909,8.092097282409668,14.843890190124512,-19.742748260498047,-14.698427200317383
1781547294485538,143368745,-0.37810009717941284,0.27317991852760315,-0.019374320283532143,0.8843297958374023,4.837145805358887,-1.871264934539795,8.381834983825684,25.629789352416992,-17.59352684020996,-5.199575424194336
1781547294487603,143568749,-0.37545841932296753,0.31067439913749695,0.03627372533082962,0.8724669218063354,5.653458595275879,-1.7913818359375,8.082905769348145,10.813811302185059,-19.922569274902344,-2.0880022048950195
1781547294488907,143585416,-0.37493354082107544,0.31312012672424316,0.03715197369456291,0.8717809319496155,5.251165390014648,-1.985361099243164,8.517505645751953,-1.231408953666687,-18.494556427001953,-2.604609966278076
1781547294725629,143602083,-0.37275072932243347,0.3170723021030426,0.035814836621284485,0.8713443875312805,5.4341044425964355,-1.8436998128890991,8.428274154663086,-22.026655197143555,-21.70435333251953,-8.033554077148438
1781547294727761,143818754,-0.37849482893943787,0.32392558455467224,0.021727824583649635,0.8668006062507629,5.7105536460876465,-2.227874517440796,7.60257625579834,27.310272216796875,0.6837776899337769,1.7095304727554321
1781547294729950,143835421,-0.3802737593650818,0.3223436176776886,0.02541760914027691,0.8665114641189575,5.69618034362793,-1.9110071659088135,7.7942399978637695,30.871742248535156,-0.5071588158607483,2.942185878753662
1781547294965996,143852088,-0.3811230957508087,0.32281064987182617,0.03041873499751091,0.8658030033111572,5.881242752075195,-1.5400798320770264,7.57193660736084,31.338594436645508,-17.234956741333008,-4.048093318939209
1781547294967242,144052092,-0.39504143595695496,0.3620273172855377,0.13655859231948853,0.8332058787345886,7.101088523864746,-0.47304677963256836,7.0710673332214355,32.68048858642578,-48.07637023925781,-4.723294258117676
1781547294969201,144068759,-0.3931072950363159,0.369996041059494,0.14554260671138763,0.8290889859199524,7.042612552642822,-0.4107387363910675,6.176109313964844,29.62103843688965,-82.06785583496094,-14.743907928466797
1781547295206462,144085426,-0.38843876123428345,0.3814918100833893,0.1559966653585434,0.8241639733314514,7.13908576965332,-0.06470095366239548,6.90224027633667,22.319149017333984,-110.9385986328125,-28.35802459716797
1781547295208010,144285430,-0.3265219032764435,0.3904917240142822,0.1331421434879303,0.8503967523574829,7.448999881744385,-0.3243180513381958,6.265955448150635,5.155405044555664,15.428487777709961,0.19811439514160156
1781547295210082,144302097,-0.3272208869457245,0.38854965567588806,0.1333949714899063,0.8509776592254639,7.622960090637207,-0.36702078580856323,6.209765911102295,7.925323963165283,13.04234790802002,0.36099204421043396
