host_t_us,sensor_t_us,qw,qx,qy,qz,ax,ay,az,gx,gy,gz
1781547253469043,102992508,-0.18236500024795532,-0.0067586773075163364,0.009078961797058582,0.9831658005714417,0.015140242874622345,0.2445240020751953,10.124104499816895,-2.8398334980010986,4.998593330383301,-0.6659814119338989
1781547253471603,103009175,-0.18311375379562378,-0.007543649990111589,0.008932258002460003,0.9830222725868225,-0.19228023290634155,0.32315802574157715,10.230504035949707,-3.5127310752868652,6.325883388519287,3.9028961658477783
1781547253498876,103025842,-0.18479225039482117,-0.008175578899681568,0.00889015942811966,0.9827033877372742,0.06762411445379257,0.34219834208488464,10.167522430419922,-3.035977363586426,5.225691318511963,10.423483848571777
1781547253501524,103042509,-0.1866072565317154,-0.008599678054451942,0.00890782568603754,0.982356607913971,-0.035010211169719696,0.16327325999736786,10.168797492980957,-2.9019718170166016,3.755713939666748,11.396434783935547
1781547253529053,103059176,-0.1874876320362091,-0.008964008651673794,0.008889217860996723,0.9821858406066895,-0.34898799657821655,-0.0070632402785122395,10.241226196289062,-3.179202079772949,3.330925464630127,4.860413551330566
1781547253531628,103075843,-0.1880616843700409,-0.009358836337924004,0.008806377649307251,0.9820731282234192,-0.10813432186841965,0.28190916776657104,10.142182350158691,-3.558103561401367,3.597322702407837,2.711059331893921
1781547253561233,103092510,-0.18856632709503174,-0.009840824641287327,0.008747328072786331,0.9819722175598145,-0.250127375125885,0.0786660686135292,10.164779663085938,-3.2808971405029297,4.150057792663574,2.2222537994384766
1781547253561730,103109177,-0.18830953538417816,-0.010194544680416584,0.008717241697013378,0.9820181131362915,-0.17027217149734497,0.1830248087644577,10.181622505187988,-3.2090795040130615,3.190682888031006,-3.098944902420044
1781547253589495,103125844,-0.18854071199893951,-0.010392163880169392,0.008667311631143093,0.9819721579551697,-0.07336322963237762,0.26453837752342224,10.219529151916504,-3.5737531185150146,2.1981520652770996,0.3230721950531006
1781547253591449,103142511,-0.18890447914600372,-0.010389475151896477,0.008650552481412888,0.9819024801254272,-0.03549479320645332,0.14528720080852509,10.186240196228027,-3.6175129413604736,0.8124541640281677,1.2631738185882568
1781547253619221,103159178,-0.18914200365543365,-0.010394181124866009,0.008623791858553886,0.9818569421768188,-0.29069817066192627,0.1852240413427353,10.192511558532715,-3.667853832244873,0.8662536144256592,0.37902316451072693
1781547253649529,103175845,-0.18921759724617004,-0.010470600798726082,0.008457683026790619,0.9818430542945862,-0.09693282097578049,0.20928780734539032,10.183817863464355,-4.505786895751953,1.5197234153747559,-0.7698155045509338
1781547253651378,103192512,-0.1891811490058899,-0.010643764398992062,0.008109554648399353,0.9818511009216309,-0.2220180332660675,0.19632677733898163,10.163090705871582,-5.601767539978027,2.4015049934387207,-1.5741567611694336
1781547253679144,103209179,-0.18913239240646362,-0.01078148651868105,0.007881302386522293,0.981860876083374,-0.12632493674755096,0.19904984533786774,10.172325134277344,-4.8376240730285645,2.005326986312866,-1.6487023830413818
1781547253681282,103225846,-0.18911121785640717,-0.011082394048571587,0.007476056460291147,0.9818648099899292,-0.11612328141927719,0.1763915866613388,10.177356719970703,-5.82187032699585,3.3390960693359375,-1.47463858127594
1781547253709239,103242513,-0.18907800316810608,-0.011487270705401897,0.007301730569452047,0.9818677306175232,-0.1717127561569214,0.12235628068447113,10.115132331848145,-4.127269268035889,3.7403571605682373,-1.543907880783081
1781547253711008,103259180,-0.18900997936725616,-0.013058719225227833,0.008323593065142632,0.9818531274795532,-0.1679941713809967,0.08087616413831711,10.004624366760254,5.4681925773620605,10.05988597869873,-1.722224473953247
1781547253739393,103275847,-0.1889978051185608,-0.013371609151363373,0.008730457164347172,0.9818477034568787,-0.26535800099372864,0.33655691146850586,10.357665061950684,-0.3244616985321045,2.3656210899353027,-1.3387502431869507
1781547253769518,103292514,-0.1889978051185608,-0.013384152203798294,0.008769260719418526,0.9818471670150757,-0.2028833031654358,0.22218497097492218,10.17548656463623,-3.2010750770568848,0.8166672587394714,-1.2777022123336792
1781547253773649,103309181,-0.188984677195549,-0.01339095737785101,0.008770917542278767,0.9818495512008667,-0.2028139978647232,0.2252226322889328,10.191001892089844,-3.4578559398651123,0.8250427842140198,-1.374070405960083
1781547253799050,103325848,-0.18896484375,-0.013403018936514854,0.008766629733145237,0.9818533062934875,-0.19822825491428375,0.21352054178714752,10.170204162597656,-3.490626811981201,0.8678287267684937,-1.4231313467025757
1781547253801667,103342515,-0.1889456957578659,-0.013410558924078941,0.008769837208092213,0.9818568229675293,-0.1990983635187149,0.2072177231311798,10.176406860351562,-3.445945978164673,0.8274504542350769,-1.4159855842590332
1781547253829024,103359182,-0.18893030285835266,-0.013424184173345566,0.008780443109571934,0.9818595051765442,-0.20437216758728027,0.21981137990951538,10.18048095703125,-3.3887012004852295,0.8594149947166443,-1.3896042108535767
1781547253831014,103375849,-0.18891142308712006,-0.013434430584311485,0.008813356049358845,0.9818627238273621,-0.19482287764549255,0.21435625851154327,10.18736457824707,-3.2421071529388428,0.8073699474334717,-1.411118984222412
1781547253859587,103392516,-0.18886293470859528,-0.013447102159261703,0.008846360258758068,0.9818716049194336,-0.19903650879859924,0.21809610724449158,10.172422409057617,-3.2360496520996094,0.8213289380073547,-1.6176724433898926
1781547253861142,103409183,-0.18854078650474548,-0.013457441702485085,0.008910258300602436,0.9819328188896179,-0.19186288118362427,0.22705087065696716,10.190906524658203,-3.0084166526794434,0.7439529895782471,-3.5301218032836914
1781547253889851,103425850,-0.18822439014911652,-0.013480599038302898,0.008998244069516659,0.9819924235343933,-0.21299603581428528,0.21472561359405518,10.173491477966309,-2.829716682434082,0.7999935746192932,-3.488398790359497
1781547253919165,103442517,-0.18806491792201996,-0.01348064560443163,0.009046279825270176,0.9820225238800049,-0.20551858842372894,0.2174597829580307,10.197327613830566,-3.1419615745544434,0.7079543471336365,-2.392495632171631
1781547253922179,103459184,-0.1877467781305313,-0.013501991517841816,0.009084369987249374,0.9820828437805176,-0.1894715279340744,0.23588934540748596,10.177520751953125,-3.1685218811035156,0.8519360423088074,-3.5063276290893555
1781547253949243,103475851,-0.18739570677280426,-0.013519380241632462,0.00909416750073433,0.9821494817733765,-0.21421180665493011,0.21598142385482788,10.21040153503418,-3.3619229793548584,0.8591717481613159,-3.739288330078125
1781547253952962,103492518,-0.1871216744184494,-0.013535541482269764,0.009085236117243767,0.9822015166282654,-0.20551039278507233,0.2294503152370453,10.183034896850586,-3.4963126182556152,0.8810831904411316,-3.202035427093506
1781547253979435,103509185,-0.1869708150625229,-0.013530352152884007,0.009078454226255417,0.9822303652763367,-0.19667476415634155,0.2218799591064453,10.19066333770752,-3.519390106201172,0.7441450357437134,-2.338554859161377
1781547253981456,103525852,-0.18691092729568481,-0.01352984644472599,0.009073377586901188,0.9822418689727783,-0.2143246978521347,0.21927224099636078,10.18068790435791,-3.508927822113037,0.7807968854904175,-1.7018487453460693
1781547254009481,103542519,-0.18682585656642914,-0.013542496599256992,0.009096669033169746,0.9822576642036438,-0.21314623951911926,0.22331339120864868,10.17934513092041,-3.2985706329345703,0.8313307762145996,-1.876322627067566
1781547254010420,103559186,-0.18680590391159058,-0.013548561371862888,0.009117617271840572,0.9822611808776855,-0.20399035513401031,0.21449986100196838,10.18564224243164,-3.3283579349517822,0.794960618019104,-1.4193791151046753
1781547254039615,103575853,-0.18667353689670563,-0.013545961119234562,0.009139593690633774,0.9822862148284912,-0.19191452860832214,0.2268787920475006,10.172289848327637,-3.323004961013794,0.7262033224105835,-2.2055227756500244
1781547254069198,103592520,-0.186369389295578,-0.013557693921029568,0.009148438461124897,0.9823437333106995,-0.18809038400650024,0.22599990665912628,10.173372268676758,-3.3792364597320557,0.8257213830947876,-3.409447193145752
1781547254071799,103609187,-0.18617141246795654,-0.013567921705543995,0.00915177445858717,0.9823811054229736,-0.20703944563865662,0.22728556394577026,10.180411338806152,-3.427414894104004,0.8314074277877808,-2.666999101638794
1781547254099165,103625854,-0.18597759306430817,-0.013573730364441872,0.0091556366533041,0.9824175834655762,-0.19812940061092377,0.21421869099140167,10.195423126220703,-3.4297327995300293,0.8012229800224304,-2.638389825820923
1781547254101687,103642521,-0.18582788109779358,-0.01356892567127943,0.009157652966678143,0.9824459552764893,-0.18910229206085205,0.2104693353176117,10.156391143798828,-3.4591867923736572,0.7354622483253479,-2.329756736755371
1781547254130960,103659188,-0.1856861114501953,-0.013573913834989071,0.009182648733258247,0.9824724793434143,-0.20657403767108917,0.2236354500055313,10.186981201171875,-3.2919750213623047,0.7729209661483765,-2.2717955112457275
1781547254131828,103675855,-0.1855187565088272,-0.013563534244894981,0.009192120283842087,0.9825041890144348,-0.20496752858161926,0.22971218824386597,10.198506355285645,-3.4144928455352783,0.6869133710861206,-2.45100736618042
1781547254159192,103692522,-0.18522460758686066,-0.013563067652285099,0.009199488908052444,0.9825596213340759,-0.20078004896640778,0.21788199245929718,10.174910545349121,-3.405938148498535,0.7463988661766052,-3.3381927013397217
1781547254160961,103709189,-0.18501056730747223,-0.013549583964049816,0.009211575612425804,0.9825999736785889,-0.20961548388004303,0.20347832143306732,10.181763648986816,-3.397268772125244,0.6589699387550354,-2.7763655185699463
1781547254189295,103725856,-0.18484899401664734,-0.013541949912905693,0.009232046082615852,0.9826303124427795,-0.18054865300655365,0.21888835728168488,10.175498008728027,-3.337334632873535,0.6919718980789185,-2.4096810817718506
1781547254219030,103742523,-0.18483933806419373,-0.013532823882997036,0.009234520606696606,0.9826322197914124,-0.20780709385871887,0.21671642363071442,10.175549507141113,-3.473043441772461,0.7171875238418579,-1.349507451057434
1781547254221388,103759190,-0.184830442070961,-0.013529364950954914,0.009226761758327484,0.9826339483261108,-0.20131732523441315,0.22384540736675262,10.199992179870605,-3.535142183303833,0.7684003710746765,-1.3447564840316772
1781547254249068,103775857,-0.18479664623737335,-0.01352312695235014,0.009216942824423313,0.9826406240463257,-0.1859757900238037,0.2251165360212326,10.194220542907715,-3.550496816635132,0.7502920031547546,-1.5183976888656616
1781547254251411,103792524,-0.18470115959644318,-0.0135326674208045,0.009226583875715733,0.9826582074165344,-0.21280208230018616,0.22676900029182434,10.169978141784668,-3.3941187858581543,0.8272711038589478,-1.9495238065719604
1781547254279620,103809191,-0.18440310657024384,-0.013528873212635517,0.009239312261343002,0.9827142953872681,-0.17902064323425293,0.2281617522239685,10.17842960357666,-3.3737945556640625,0.7170212268829346,-3.3658931255340576
1781547254281073,103825858,-0.1842246949672699,-0.013511083088815212,0.009230714291334152,0.9827479124069214,-0.20552650094032288,0.21943016350269318,10.172447204589844,-3.5452332496643066,0.6590980291366577,-2.5289723873138428
1781547254309595,103842525,-0.18376179039478302,-0.013507615774869919,0.009233027696609497,0.9828346967697144,-0.21487818658351898,0.21363817155361176,10.175729751586914,-3.430116891860962,0.7190573215484619,-4.519335746765137
1781547254310543,103859192,-0.18358001112937927,-0.013503879308700562,0.009233063086867332,0.9828687310218811,-0.18138200044631958,0.2342495173215866,10.185093879699707,-3.4688048362731934,0.7427747249603271,-2.553445339202881
1781547254339453,103875859,-0.18356853723526,-0.013496886007487774,0.009242275729775429,0.982870876789093,-0.18906208872795105,0.22377075254917145,10.182171821594238,-3.4250969886779785,0.7230913639068604,-1.3609180450439453
1781547254369333,103892526,-0.18357501924037933,-0.01348839420825243,0.009245824068784714,0.9828697443008423,-0.1926935762166977,0.20972026884555817,10.181739807128906,-3.4661028385162354,0.7215674519538879,-1.235095739364624
1781547254371658,103909193,-0.18357515335083008,-0.013474700041115284,0.009245320223271847,0.9828698635101318,-0.18756119906902313,0.20866329967975616,10.198738098144531,-3.4995532035827637,0.6908577680587769,-1.2798794507980347
1781547254399005,103925860,-0.18358105421066284,-0.013470237143337727,0.009256507270038128,0.9828686714172363,-0.19230009615421295,0.22990456223487854,10.19534969329834,-3.4095494747161865,0.7392657399177551,-1.2399747371673584
1781547254401295,103942527,-0.1835150122642517,-0.013458245433866978,0.009221043437719345,0.9828816056251526,-0.21483570337295532,0.22009217739105225,10.172103881835938,-3.7283382415771484,0.7411867380142212,-1.7469652891159058
1781547254429623,103959194,-0.18252073228359222,-0.013405364006757736,0.009225164540112019,0.9830673933029175,-0.26204973459243774,0.19148434698581696,10.185395240783691,-3.437904119491577,0.34021997451782227,-8.232102394104004
1781547254430676,103975861,-0.1813453733921051,-0.013339314609766006,0.009129699319601059,0.9832867383956909,-0.15773944556713104,0.24089109897613525,10.204236030578613,-4.112568378448486,0.36156824231147766,-9.506848335266113
1781547254459545,103992528,-0.18074999749660492,-0.013299355283379555,0.009083910845220089,0.9833973050117493,-0.16732284426689148,0.21495318412780762,10.16815185546875,-3.7905523777008057,0.5223774909973145,-5.446464538574219
1781547254461138,104009195,-0.18058530986309052,-0.013388479128479958,0.00919851940125227,0.9834251403808594,-0.15939292311668396,0.22058841586112976,10.173089027404785,-2.5799672603607178,1.2303379774093628,-2.4253687858581543
1781547254489301,104025862,-0.18055002391338348,-0.013425550423562527,0.009257467463612556,0.9834306836128235,-0.19988597929477692,0.22536934912204742,10.214487075805664,-3.0315444469451904,0.9578573107719421,-1.5247751474380493
1781547254519704,104042529,-0.1805127114057541,-0.013427164405584335,0.009247706271708012,0.9834375381469727,-0.20736488699913025,0.23104441165924072,10.175742149353027,-3.5397398471832275,0.8030030131340027,-1.544100284576416
1781547254521533,104059196,-0.18034382164478302,-0.013418679125607014,0.009230165742337704,0.983468770980835,-0.2095581293106079,0.21161331236362457,10.187690734863281,-3.5945634841918945,0.7338613867759705,-2.46321177482605
1781547254549112,104075863,-0.18017028272151947,-0.013419301249086857,0.009228458628058434,0.9835007190704346,-0.18052572011947632,0.23660574853420258,10.181035041809082,-3.4757204055786133,0.7754693031311035,-2.494433879852295
1781547254551511,104092530,-0.18014632165431976,-0.013441953808069229,0.00925943348556757,0.9835044145584106,-0.21292094886302948,0.23098798096179962,10.193696975708008,-3.239353656768799,0.8960795402526855,-1.4480012655258179
1781547254579176,104109197,-0.18002483248710632,-0.013454219326376915,0.009260345250368118,0.9835264682769775,-0.21651016175746918,0.21204794943332672,10.171117782592773,-3.4481735229492188,0.8552528023719788,-2.1323981285095215
1781547254582544,104125864,-0.1791396588087082,-0.01345726940780878,0.009290695190429688,0.9836878180503845,-0.24241703748703003,0.20416271686553955,10.166553497314453,-3.1981303691864014,0.694789469242096,-7.465513706207275
1781547254609256,104142531,-0.17850017547607422,-0.013014886528253555,0.008896556682884693,0.9838137030601501,-0.15097248554229736,0.24812527000904083,10.217025756835938,-6.638416767120361,-1.7759082317352295,-5.770081996917725
1781547254611700,104159198,-0.17851422727108002,-0.012977593578398228,0.00896544475108385,0.9838109016418457,-0.15536412596702576,0.20536932349205017,10.112065315246582,-3.059821367263794,0.4475499391555786,-1.175533413887024
1781547254639548,104175865,-0.1785162091255188,-0.012981191277503967,0.008953429758548737,0.9838106632232666,-0.18886910378932953,0.2081998586654663,10.182175636291504,-3.556259870529175,0.8224686980247498,-1.2702620029449463
1781547254669452,104192532,-0.1785070300102234,-0.012980797328054905,0.008955517783761024,0.9838123321533203,-0.1860441416501999,0.20502083003520966,10.185640335083008,-3.4644765853881836,0.7772878408432007,-1.3470360040664673
1781547254673006,104209199,-0.1785089522600174,-0.01297067105770111,0.008951352909207344,0.983812153339386,-0.18453019857406616,0.20544342696666718,10.203102111816406,-3.5200047492980957,0.7200434803962708,-1.2679952383041382
1781547254699052,104225866,-0.17849934101104736,-0.012954463250935078,0.00893271341919899,0.9838142991065979,-0.17009137570858002,0.2125445455312729,10.180093765258789,-3.6242871284484863,0.6957371234893799,-1.3505322933197021
1781547254701080,104242533,-0.1784927099943161,-0.012943010777235031,0.008918233215808868,0.9838157892227173,-0.19981545209884644,0.2134486436843872,10.178767204284668,-3.590132236480713,0.7229633331298828,-1.3295810222625732
1781547254729845,104259200,-0.17848926782608032,-0.012945071794092655,0.008914574049413204,0.9838163256645203,-0.19399426877498627,0.2223948985338211,10.183501243591309,-3.5006930828094482,0.801491916179657,-1.3059406280517578
1781547254732458,104275867,-0.17850354313850403,-0.012934448197484016,0.008918185718357563,0.9838138222694397,-0.17976157367229462,0.21163608133792877,10.178790092468262,-3.468459129333496,0.7080439329147339,-1.1814626455307007
1781547254759090,104292534,-0.17850610613822937,-0.012929756194353104,0.008908350020647049,0.9838135838508606,-0.2018478512763977,0.2051805555820465,10.164933204650879,-3.551124334335327,0.7637386918067932,-1.2666120529174805
1781547254761518,104309201,-0.1785111427307129,-0.012930348515510559,0.008911908604204655,0.9838126301765442,-0.17959776520729065,0.21529024839401245,10.182260513305664,-3.4545254707336426,0.7832683324813843,-1.2464419603347778
1781547254789309,104325868,-0.1785104125738144,-0.012936878949403763,0.00890254881232977,0.9838127493858337,-0.1914314478635788,0.21579347550868988,10.178171157836914,-3.5342838764190674,0.8389632105827332,-1.288677453994751
1781547254819759,104342535,-0.17852042615413666,-0.012939129956066608,0.008911998942494392,0.9838108420372009,-0.18709732592105865,0.22529950737953186,10.185234069824219,-3.413238286972046,0.7877634763717651,-1.2106868028640747
1781547254821675,104359202,-0.17852026224136353,-0.01293761283159256,0.008917669765651226,0.9838107824325562,-0.17498426139354706,0.21641701459884644,10.189536094665527,-3.4424235820770264,0.7661077976226807,-1.2826327085494995
1781547254849466,104375869,-0.1785140484571457,-0.012944821268320084,0.00892676878720522,0.9838117361068726,-0.1783544421195984,0.20853310823440552,10.186214447021484,-3.4082560539245605,0.8207013010978699,-1.3251880407333374
1781547254851803,104392536,-0.1785111129283905,-0.012939976528286934,0.008935908786952496,0.9838122725486755,-0.18664385378360748,0.21456444263458252,10.17266845703125,-3.4229326248168945,0.7392786145210266,-1.3018807172775269
1781547254879636,104409203,-0.1785094141960144,-0.012947208248078823,0.00893799401819706,0.9838123917579651,-0.18980872631072998,0.23326094448566437,10.175159454345703,-3.4559214115142822,0.8296529054641724,-1.2935436964035034
1781547254881743,104425870,-0.1785149872303009,-0.012938755564391613,0.00893312320113182,0.983811616897583,-0.19751928746700287,0.2286602258682251,10.191643714904785,-3.522911787033081,0.7325937151908875,-1.2447515726089478
1781547254909768,104442537,-0.17851269245147705,-0.01294421125203371,0.00894248764961958,0.9838118553161621,-0.201934814453125,0.22609496116638184,10.18040943145752,-3.408806800842285,0.8087528944015503,-1.2984485626220703
1781547254912240,104459204,-0.17851674556732178,-0.012945946305990219,0.008944349363446236,0.9838110208511353,-0.18665346503257751,0.2035115510225296,10.178400993347168,-3.464630126953125,0.7932061553001404,-1.2533190250396729
1781547254939299,104475871,-0.17851413786411285,-0.012945683673024178,0.00895051471889019,0.9838114976882935,-0.18563836812973022,0.21535933017730713,10.174118995666504,-3.4375698566436768,0.7740606069564819,-1.3014965057373047
1781547254969158,104492538,-0.17851383984088898,-0.012949006631970406,0.008962532505393028,0.9838114380836487,-0.2031341791152954,0.21520105004310608,10.187200546264648,-3.393439292907715,0.7910929918289185,-1.2835419178009033
1781547254970986,104509205,-0.17851898074150085,-0.012954255566000938,0.008956841193139553,0.9838104844093323,-0.18158946931362152,0.21028254926204681,10.172582626342773,-3.511385917663574,0.8264899253845215,-1.2476714849472046
1781547254999710,104525872,-0.17851442098617554,-0.012945199385285378,0.008954985998570919,0.9838114380836487,-0.1727563738822937,0.22358158230781555,10.19154167175293,-3.5020506381988525,0.724269688129425,-1.313624382019043
1781547255001178,104542539,-0.17851735651493073,-0.012943286448717117,0.008951947093009949,0.9838109016418457,-0.1867695152759552,0.22947470843791962,10.163461685180664,-3.502063035964966,0.7745729088783264,-1.261912226676941
1781547255029239,104559206,-0.17851944267749786,-0.01295558176934719,0.008945096284151077,0.9838104248046875,-0.1743234097957611,0.21025249361991882,10.19055461883545,-3.510554075241089,0.8755382895469666,-1.2684948444366455
1781547255031460,104575873,-0.17852087318897247,-0.012947130016982555,0.008946769870817661,0.983810305595398,-0.18416862189769745,0.21617552638053894,10.19286823272705,-3.4783074855804443,0.7244616150856018,-1.27205491065979
1781547255089248,104592540,-0.17851820588111877,-0.01293949130922556,0.008945218287408352,0.9838108420372009,-0.18145665526390076,0.21411354839801788,10.149425506591797,-3.4984004497528076,0.7335925698280334,-1.3009074926376343
1781547255091535,104609207,-0.17851966619491577,-0.01294331718236208,0.008943776600062847,0.9838106036186218,-0.19829218089580536,0.21323059499263763,10.160440444946289,-3.4841084480285645,0.811275839805603,-1.27117121219635
1781547255093370,104625874,-0.17851145565509796,-0.01293910015374422,0.00894309114664793,0.983812153339386,-0.1893966645002365,0.2166963368654251,10.195747375488281,-3.4880149364471436,0.7551841139793396,-1.3399542570114136
1781547255119103,104642541,-0.17851248383522034,-0.012927208095788956,0.008950399234890938,0.9838120341300964,-0.1832052767276764,0.2275969386100769,10.174670219421387,-3.444293737411499,0.6944179534912109,-1.2738349437713623
1781547255122146,104659208,-0.17850805819034576,-0.012918601743876934,0.008957186713814735,0.9838128685951233,-0.1948147416114807,0.22236987948417664,10.19393253326416,-3.4436533451080322,0.716957151889801,-1.3111014366149902
1781547255149273,104675875,-0.17849808931350708,-0.012924456037580967,0.008958553895354271,0.9838145971298218,-0.20416319370269775,0.1973881870508194,10.182119369506836,-3.4615185260772705,0.8207014799118042,-1.3519666194915771
1781547255151697,104692542,-0.1785016506910324,-0.012921257875859737,0.008961151354014874,0.983814001083374,-0.18073804676532745,0.2048862725496292,10.177009582519531,-3.4657695293426514,0.7591924071311951,-1.2570456266403198
1781547255179196,104709209,-0.17850153148174286,-0.012924022041261196,0.008972381241619587,0.9838138818740845,-0.1966811865568161,0.21154464781284332,10.179407119750977,-3.3997654914855957,0.7885957956314087,-1.282466173171997
1781547255181667,104725876,-0.1785023957490921,-0.012923238798975945,0.008967505767941475,0.9838138222694397,-0.1859188824892044,0.2317519336938858,10.189642906188965,-3.513256072998047,0.7846516370773315,-1.2770750522613525
1781547255209605,104742543,-0.178501158952713,-0.01292450726032257,0.008973228745162487,0.9838139414787292,-0.18751554191112518,0.2081075757741928,10.193605422973633,-3.438671588897705,0.7851381301879883,-1.2895867824554443
1781547255210726,104759210,-0.17849336564540863,-0.01290824543684721,0.008977018296718597,0.9838154911994934,-0.18295295536518097,0.207109272480011,10.192543029785156,-3.472557306289673,0.6684338450431824,-1.3358815908432007
1781547255239444,104775877,-0.1784914880990982,-0.0129119036719203,0.008983103558421135,0.9838157296180725,-0.19384130835533142,0.2135562151670456,10.160460472106934,-3.4327166080474854,0.8008258938789368,-1.2952214479446411
1781547255269481,104792544,-0.1784968078136444,-0.01292329840362072,0.008979244157671928,0.9838147163391113,-0.19208043813705444,0.21356703341007233,10.190018653869629,-3.49137020111084,0.8661256432533264,-1.2452255487442017
1781547255272245,104809211,-0.17850087583065033,-0.012921265326440334,0.00897848978638649,0.983814001083374,-0.19341473281383514,0.21379823982715607,10.172469139099121,-3.4866442680358887,0.771320104598999,-1.253408670425415
1781547255299272,104825878,-0.1785093992948532,-0.012920008972287178,0.008988178335130215,0.9838123917579651,-0.19225828349590302,0.21765734255313873,10.173836708068848,-3.4155945777893066,0.7641357183456421,-1.2221996784210205
1781547255301543,104842545,-0.1782224029302597,-0.013072085566818714,0.009104174561798573,0.9838613867759705,-0.19388864934444427,0.14681118726730347,10.180573463439941,-2.485328197479248,1.6479017734527588,-3.282228946685791
1781547255329153,104859212,-0.17860054969787598,-0.01253960095345974,0.008767091669142246,0.983802855014801,0.664570152759552,-0.8591266870498657,10.306714057922363,-6.441800117492676,-2.376103639602661,1.3494884967803955
1781547255331760,104875879,-0.1838667243719101,-0.010873435996472836,0.007851232774555683,0.98285973072052,0.2758488655090332,-0.3434465825557709,10.104104995727539,-12.116215705871582,-8.961994171142578,35.51741027832031
1781547255359122,104892546,-0.18816624581813812,-0.010777081362903118,0.007712486665695906,0.9820479154586792,-0.7889760732650757,1.0376266241073608,10.121400833129883,-4.814664840698242,0.6020219922065735,28.793691635131836
1781547255360866,104909213,-0.18819108605384827,-0.010729263536632061,0.007970777340233326,0.9820415377616882,-1.2947338819503784,-1.1610482931137085,10.132745742797852,-1.7974225282669067,0.12910722196102142,-1.084954023361206
1781547255389329,104925880,-0.18278640508651733,-0.010577757842838764,0.008091158233582973,0.9830625057220459,-0.6795081496238708,0.7476516962051392,10.20988941192627,-2.5175111293792725,-0.7666817307472229,-39.07756042480469
1781547255419104,104942547,-0.17933529615402222,-0.010553992353379726,0.008297809399664402,0.9836965203285217,0.30978018045425415,0.7609826922416687,10.191293716430664,-1.895241379737854,0.12476613372564316,-25.387746810913086
1781547255421118,104959214,-0.18028713762760162,-0.010489390231668949,0.008386466652154922,0.983522355556488,0.192770317196846,0.4444182813167572,10.213842391967773,-3.0172786712646484,0.3042340576648712,5.379672050476074
1781547255449121,104975881,-0.1789010614156723,-0.010528205893933773,0.008291011676192284,0.9837758541107178,-0.8348405957221985,-0.177916020154953,10.170418739318848,-3.9902427196502686,1.0662506818771362,-10.978349685668945
1781547255451171,104992548,-0.17484834790229797,-0.010569474659860134,0.008437731303274632,0.9845025539398193,-0.0303163044154644,0.6244475841522217,10.18403434753418,-2.1831564903259277,0.5982824563980103,-29.578968048095703
1781547255479118,105009215,-0.174030601978302,-0.010614451952278614,0.008571215905249119,0.9846457839012146,0.6570565700531006,0.9564719796180725,10.16142749786377,-2.46970534324646,0.8695065975189209,-6.9818572998046875
1781547255480691,105025882,-0.17491242289543152,-0.010602445341646671,0.008698408491909504,0.9844884872436523,-0.17874573171138763,0.16078034043312073,10.204741477966309,-2.6873104572296143,0.6138787865638733,4.885513782501221
1781547255509429,105042549,-0.17640432715415955,-0.010580630041658878,0.008834833279252052,0.9842212796211243,-0.19110910594463348,0.05719805136322975,10.17444896697998,-2.6742992401123047,0.5808385014533997,9.149209022521973
1781547255512058,105059216,-0.17691084742546082,-0.010562092997133732,0.009141655638813972,0.9841278195381165,-0.5141533017158508,-0.07573997229337692,10.17924976348877,-1.4560436010360718,0.32375094294548035,2.2826743125915527
1781547255539890,105075883,-0.17515839636325836,-0.01052909530699253,0.009318721480667591,0.9844399690628052,-0.30817171931266785,0.07154913991689682,10.192426681518555,-2.2133612632751465,0.21229737997055054,-13.503726959228516
1781547255569328,105092550,-0.17292264103889465,-0.01057162694633007,0.009502226486802101,0.9848330020904541,-0.10894330590963364,0.34402862191200256,10.141554832458496,-2.0485057830810547,0.6787691712379456,-16.876787185668945
1781547255571761,105109217,-0.17101100087165833,-0.010525749996304512,0.00971060898154974,0.9851650595664978,-0.026390746235847473,0.3621757924556732,10.182512283325195,-2.004758834838867,0.07617862522602081,-14.602898597717285
1781547255600236,105125884,-0.1700166016817093,-0.010608810931444168,0.010163361206650734,0.9853317141532898,-0.11412614583969116,0.31314507126808167,10.170175552368164,-0.2535914182662964,0.7355777025222778,-8.18644905090332
1781547255602537,105142551,-0.16940335929393768,-0.010580874048173428,0.01056278869509697,0.9854333996772766,0.2870385944843292,0.507372260093689,10.18484115600586,-0.768252968788147,0.07731834053993225,-5.524877548217773
1781547255629193,105159218,-0.16965420544147491,-0.01050204411149025,0.010760481469333172,0.985388994216919,-0.10971928387880325,0.2679000794887543,10.174181938171387,-2.2464513778686523,0.0411532036960125,0.4897724986076355
1781547255631658,105175885,-0.17000266909599304,-0.010355752892792225,0.010904734022915363,0.9853289723396301,-0.15396854281425476,0.2601998746395111,10.187545776367188,-2.6932008266448975,-0.3450414836406708,1.1684064865112305
1781547255659197,105192552,-0.17085376381874084,-0.010188756510615349,0.011130187660455704,0.9851808547973633,-0.24977152049541473,0.23503080010414124,10.187786102294922,-2.1962764263153076,-0.5363043546676636,4.686938762664795
1781547255661625,105209219,-0.17175976932048798,-0.00976256188005209,0.011354940943419933,0.98502516746521,-0.034074172377586365,0.2993544638156891,10.208826065063477,-2.50886607170105,-2.286573648452759,5.087059497833252
1781547255689428,105225886,-0.1727505773305893,-0.009442973881959915,0.011596440337598324,0.9848521947860718,-0.37372294068336487,0.11899764090776443,10.153372764587402,-2.2740108966827393,-1.5764875411987305,5.672208309173584
1781547255719248,105242553,-0.17375443875789642,-0.008924887515604496,0.011878934688866138,0.9846768975257874,-0.00843760184943676,0.31649917364120483,10.12929916381836,-2.2324414253234863,-2.9683456420898438,5.783879280090332
1781547255722850,105259220,-0.17627716064453125,-0.010781148448586464,0.010852130129933357,0.9842216968536377,-0.4247603118419647,0.16034145653247833,10.16784381866455,-8.33017349243164,14.81155014038086,16.125585556030273
1781547255749287,105275887,-0.1778906285762787,-0.010899500921368599,0.010995747521519661,0.9839285016059875,-0.03114629164338112,0.2975060045719147,10.143342018127441,-2.461266040802002,1.552751064300537,9.992932319641113
1781547255751831,105292554,-0.18114928901195526,-0.011084333062171936,0.0110707962885499,0.9833308458328247,-0.02171170525252819,0.31042715907096863,10.23389720916748,-2.944274425506592,2.23356556892395,21.485177993774414
1781547255779250,105309221,-0.18328243494033813,-0.010985853150486946,0.01102299615740776,0.9829371571540833,0.16726082563400269,0.3137330710887909,10.152091979980469,-4.057323455810547,0.3701229989528656,13.634464263916016
1781547255781149,105325888,-0.1838032603263855,-0.010952450335025787,0.01103622280061245,0.9828401207923889,-0.10273715108633041,0.24101021885871887,10.184539794921875,-3.4635159969329834,0.5886247158050537,2.3638408184051514
1781547255809295,105342555,-0.1849195957183838,-0.010950078256428242,0.011018773540854454,0.9826309680938721,-0.13894417881965637,0.2780008912086487,10.145309448242188,-3.668020725250244,0.8908033967018127,6.5243048667907715
1781547255811832,105359222,-0.18660449981689453,-0.010919515043497086,0.011018251068890095,0.9823126792907715,-0.12957486510276794,0.3486255407333374,10.173808097839355,-3.6238396167755127,0.7300838232040405,10.506647109985352
1781547255839471,105375889,-0.18869665265083313,-0.010846835561096668,0.010938440449535847,0.9819146394729614,-0.1340440958738327,0.1918119639158249,10.151239395141602,-4.238187313079834,0.584283709526062,13.357409477233887
1781547255869269,105392556,-0.1906769871711731,-0.010848085395991802,0.010954301804304123,0.9815318584442139,-0.13523423671722412,0.2865315079689026,10.169543266296387,-3.4888100624084473,0.9495465755462646,12.584928512573242
1781547255871612,105409223,-0.19321133196353912,-0.010848024860024452,0.010884460061788559,0.9810369610786438,0.04411571845412254,0.190201073884964,10.1513671875,-4.101954460144043,1.1032743453979492,16.463403701782227
1781547255899525,105425890,-0.19749750196933746,-0.010882236063480377,0.011009950190782547,0.9801811575889587,-0.12387287616729736,0.31692084670066833,10.206731796264648,-2.8427743911743164,1.2331204414367676,28.771961212158203
1781547255902131,105442557,-0.20301440358161926,-0.010881130583584309,0.011007851921021938,0.9790534377098083,-0.053852252662181854,0.3422463834285736,10.16500473022461,-3.821831226348877,1.281787633895874,37.42930221557617
1781547255929568,105459224,-0.21006356179714203,-0.01071150228381157,0.010945362038910389,0.9775678515434265,-0.4528309106826782,0.5363881587982178,10.189927101135254,-4.551004409790039,0.3746720552444458,48.25015640258789
1781547255930904,105475891,-0.21757347881793976,-0.010671611875295639,0.010922339744865894,0.9759246110916138,-0.03610147908329964,0.09518617391586304,10.140281677246094,-4.1207380294799805,1.2356387376785278,51.5675048828125
1781547255959181,105492558,-0.22554777562618256,-0.010645486414432526,0.01101116742938757,0.9741117358207703,-0.19473017752170563,0.26520055532455444,10.22585678100586,-3.370462656021118,1.2079654932022095,54.94499969482422
1781547255961361,105509225,-0.23342157900333405,-0.010476024821400642,0.010879776440560818,0.9722583889961243,-0.4115314185619354,0.14866472780704498,10.112957954406738,-5.057229518890381,0.5847376585006714,54.328765869140625
1781547255989350,105525892,-0.23974868655204773,-0.010404425673186779,0.010928564704954624,0.9707178473472595,-0.39939939975738525,0.0986345037817955,10.253564834594727,-3.607316732406616,0.8111916184425354,43.49310302734375
1781547256019242,105542559,-0.24360081553459167,-0.010491122491657734,0.011071129702031612,0.9697557091712952,-0.24978508055210114,0.1465395838022232,10.167267799377441,-2.586747884750366,1.4855592250823975,26.018178939819336
1781547256021183,105559226,-0.24604696035385132,-0.0104340435937047,0.010958394035696983,0.9691398739814758,0.3551335632801056,0.20264381170272827,10.120162010192871,-4.454808712005615,0.8225334286689758,16.05522918701172
1781547256049750,105575893,-0.24877029657363892,-0.010621866211295128,0.010927379131317139,0.9684426784515381,0.2406109869480133,0.34154579043388367,10.170150756835938,-3.5095458030700684,2.343186855316162,18.027908325195312
1781547256051761,105592560,-0.2531428635120392,-0.011250954121351242,0.009921323508024216,0.9673126935958862,-0.23755064606666565,0.32284265756607056,10.302016258239746,-9.335156440734863,7.104584217071533,29.644493103027344
1781547256079702,105609227,-0.25628286600112915,-0.010965419933199883,0.00813797302544117,0.9665055274963379,-0.2837890088558197,0.051882192492485046,10.080552101135254,-16.023075103759766,2.2657368183135986,20.88712501525879
1781547256082216,105625894,-0.2570694088935852,-0.01097970549017191,0.008235622197389603,0.9662955403327942,-0.3328382670879364,0.09358369559049606,10.158795356750488,-2.851167917251587,0.7669275999069214,4.320036888122559
1781547256109736,105642561,-0.2568639814853668,-0.010991865769028664,0.008194994181394577,0.9663503766059875,-0.1384725719690323,0.20256000757217407,10.179221153259277,-3.7137134075164795,0.920808732509613,-2.748767852783203
1781547256113282,105659228,-0.2568625509738922,-0.01099675428122282,0.008191211149096489,0.9663507342338562,-0.17574352025985718,0.2111824005842209,10.173802375793457,-3.4938032627105713,0.8228785395622253,-1.2935184240341187
1781547256139334,105675895,-0.256869375705719,-0.0109947444871068,0.00818604975938797,0.9663490056991577,-0.18175309896469116,0.2014349400997162,10.173215866088867,-3.5158560276031494,0.7804126739501953,-1.2349933385849
1781547256169157,105692562,-0.25687071681022644,-0.01098757702857256,0.008190835826098919,0.9663486480712891,-0.17756441235542297,0.19562269747257233,10.192636489868164,-3.458534002304077,0.7279192805290222,-1.271209478378296
1781547256171507,105709229,-0.2568681240081787,-0.010985161177814007,0.008196531794965267,0.9663493037223816,-0.17206692695617676,0.19465312361717224,10.148609161376953,-3.443755865097046,0.7575916647911072,-1.2996013164520264
1781547256199141,105725896,-0.2568625509738922,-0.010989397764205933,0.008202695287764072,0.9663506150245667,-0.1666967123746872,0.21684405207633972,10.170780181884766,-3.4287209510803223,0.8006593585014343,-1.320629358291626
1781547256201600,105742563,-0.25685757398605347,-0.010988086462020874,0.008206930942833424,0.9663519859313965,-0.1627742201089859,0.21164624392986298,10.18543529510498,-3.4513626098632812,0.7672604918479919,-1.3180038928985596
1781547256229156,105759230,-0.25695160031318665,-0.012818608433008194,0.0087761664763093,0.9662994146347046,-0.1513015627861023,0.15590965747833252,10.100181579589844,3.5332672595977783,11.95000171661377,-0.6246172189712524
1781547256231601,105775897,-0.2570950388908386,-0.012771944515407085,0.008775576017796993,0.9662618637084961,-0.19897587597370148,0.2964494526386261,10.24805736541748,-3.5742266178131104,0.4868909418582916,-0.2603018283843994
1781547256259132,105792564,-0.2580932080745697,-0.012656914070248604,0.008652741089463234,0.9659982919692993,-0.03620075061917305,0.30864688754081726,10.167908668518066,-4.568705081939697,0.3201524615287781,5.811645030975342
1781547256261439,105809231,-0.2653883993625641,-0.012488803826272488,0.007979858666658401,0.9640277624130249,0.554393470287323,0.6351544260978699,10.214314460754395,-8.762505531311035,1.4669744968414307,50.6181755065918
1781547256290170,105825898,-0.28788381814956665,-0.012003697454929352,0.007686845026910305,0.95755934715271,0.9826608896255493,0.8309540748596191,10.172866821289062,-7.881852149963379,-0.10681457817554474,159.63601684570312
1781547256319238,105842565,-0.32652539014816284,-0.011477332562208176,0.007509926799684763,0.9450890421867371,0.4078439772129059,0.7196966409683228,10.170376777648926,-8.215462684631348,0.7415040135383606,277.89105224609375
1781547256321563,105859232,-0.3686562180519104,-0.010265529155731201,0.008045067079365253,0.9294743537902832,-0.40229517221450806,0.40847548842430115,10.153581619262695,-5.23934268951416,-4.884167671203613,307.7383117675781
1781547256350040,105875899,-0.40844959020614624,-0.0096175791695714,0.008355882950127125,0.9126920104026794,-0.48784834146499634,0.5674469470977783,10.09081745147705,-5.01345157623291,-0.7582159638404846,295.7037048339844
1781547256350936,105892566,-0.44606614112854004,-0.009052237495779991,0.007894725538790226,0.8949194550514221,-0.3896430730819702,0.4453917443752289,10.280811309814453,-9.425660133361816,1.8684110641479492,284.758056640625
1781547256379714,105909233,-0.4798241853713989,-0.00821494311094284,0.007989533245563507,0.877289891242981,-0.755213737487793,0.521491527557373,10.197897911071777,-6.605060577392578,-1.729822039604187,260.6096496582031
1781547256381577,105925900,-0.5222822427749634,-0.0073003098368644714,0.009036806412041187,0.8526936173439026,-2.602576494216919,2.981832265853882,9.809261322021484,-1.2221357822418213,-4.46950626373291,336.197998046875
1781547256409387,105942567,-0.5703749060630798,-0.006370880641043186,0.008911311626434326,0.8213115334510803,-2.6148016452789307,1.3840702772140503,10.468036651611328,-8.017171859741211,0.3454414904117584,393.6225891113281
1781547256411893,105959234,-0.6069499254226685,-0.005666336510330439,0.008461966179311275,0.7946748733520508,-0.7579023838043213,-1.1685818433761597,9.89840316772461,-8.750239372253418,1.9697266817092896,309.83673095703125
1781547256439330,105975901,-0.6289281845092773,-0.0053397915326058865,0.008425583131611347,0.7773995399475098,-1.2295126914978027,-0.5012388229370117,10.600044250488281,-4.889747142791748,1.0965373516082764,190.93251037597656
1781547256469164,105992568,-0.6445949673652649,-0.004386735148727894,0.007872014306485653,0.764471173286438,-2.0523555278778076,1.2718809843063354,10.065007209777832,-10.38306713104248,-0.5423344373703003,138.40341186523438
1781547256471032,106009235,-0.6589853167533875,-0.0038482239469885826,0.008008982054889202,0.7521033883094788,-0.6742466688156128,1.1996251344680786,10.352126121520996,-4.908898830413818,-1.5115200281143188,129.20677185058594
1781547256499100,106025902,-0.677003026008606,-0.004163041245192289,0.0069855633191764355,0.7359353303909302,0.31423822045326233,0.04430520161986351,9.609500885009766,-6.9308762550354,8.459532737731934,165.11302185058594
1781547256503197,106042569,-0.6871916651725769,-0.00423488300293684,0.007180423010140657,0.7264285087585449,5.235274314880371,-4.207486152648926,10.389047622680664,-1.9929485321044922,0.9918638467788696,94.52593994140625
1781547256529140,106059236,-0.6956726908683777,-0.0019005303038284183,0.008382205851376057,0.7183075547218323,-0.43141254782676697,1.2982738018035889,10.836226463317871,-8.347732543945312,-15.904271125793457,79.59695434570312
1781547256531505,106075903,-0.7062098979949951,0.0022240113466978073,0.01179289910942316,0.7079010009765625,-0.4788425862789154,0.02598806843161583,10.302327156066895,-5.897241115570068,-35.16377258300781,100.81781768798828
1781547256559700,106092570,-0.7120354175567627,0.005711454898118973,0.0156388022005558,0.7019461989402771,-0.44808074831962585,-0.5667684078216553,9.94828987121582,-1.118433952331543,-34.48983383178711,56.208988189697266
1781547256561138,106109237,-0.7177457809448242,0.00946514680981636,0.018096204847097397,0.6960058212280273,0.4363989233970642,0.3633889853954315,10.39626407623291,-9.128570556640625,-28.98978614807129,55.665435791015625
1781547256589677,106125904,-0.7236673831939697,0.015023894608020782,0.020159266889095306,0.689690887928009,0.13041236996650696,0.13796769082546234,10.305729866027832,-19.86321258544922,-35.67967224121094,58.775115966796875
1781547256619457,106142571,-0.7271892428398132,0.019684555009007454,0.02288389950990677,0.6857731342315674,-0.7087746262550354,-0.3557790517807007,9.746747970581055,-12.837703704833984,-34.797603607177734,35.2752571105957
1781547256621688,106159238,-0.7261930108070374,0.020912591367959976,0.02753898687660694,0.6866209506988525,-0.5316541194915771,-0.07376255095005035,10.36974048614502,12.065478324890137,-28.331146240234375,-10.655243873596191
1781547256649133,106175905,-0.7218384146690369,0.027672693133354187,0.030854472890496254,0.6908195614814758,-0.6812804937362671,0.650471031665802,10.935139656066895,-22.996774673461914,-47.91434097290039,-42.00081253051758
1781547256651921,106192572,-0.7169187068939209,0.036995306611061096,0.033021390438079834,0.6953909993171692,1.8113898038864136,0.052016377449035645,10.847319602966309,-41.357059478759766,-54.43565368652344,-45.772911071777344
1781547256679141,106209239,-0.7141219973564148,0.05187463015317917,0.03314109519124031,0.6973095536231995,1.4026615619659424,-0.20324388146400452,10.436422348022461,-77.39417266845703,-71.10514831542969,-20.764415740966797
1781547256681298,106225906,-0.7127860188484192,0.0653492882847786,0.03222263604402542,0.6975868344306946,2.032655715942383,-0.5926128625869751,9.379509925842285,-74.57891082763672,-59.52513885498047,-5.651508331298828
1781547256709328,106242573,-0.7126584649085999,0.07506104558706284,0.03267756104469299,0.6967180371284485,1.237342357635498,-0.5784804821014404,9.965505599975586,-48.75275802612305,-48.453712463378906,4.310733795166016
1781547256711377,106259240,-0.7100072503089905,0.08914467692375183,0.0326848030090332,0.6977641582489014,0.8320531249046326,-0.554897665977478,11.202741622924805,-74.05280303955078,-66.7827377319336,-15.948527336120605
1781547256739505,106275907,-0.7055228352546692,0.120528444647789,0.027622554451227188,0.6978163719177246,2.0236289501190186,0.08866268396377563,17.767345428466797,-183.75344848632812,-126.0724105834961,-12.897849082946777
1781547256769446,106292574,-0.6796510219573975,0.23417750000953674,-0.025902407243847847,0.694668710231781,0.09082216024398804,-2.9389991760253906,16.33059310913086,-834.6785278320312,-293.1794738769531,-44.32136917114258
1781547256771598,106309241,-0.6683563590049744,0.3050481975078583,-0.04937565699219704,0.6766147017478943,3.2654154300689697,0.015319257974624634,-2.9172377586364746,-468.6244201660156,-255.342529296875,54.360931396484375
1781547256800556,106325908,-0.6557818651199341,0.34783196449279785,-0.05260841175913811,0.667978823184967,1.515127182006836,-5.368655204772949,10.971334457397461,-244.50357055664062,-197.31272888183594,-27.850555419921875
1781547256801372,106342575,-0.6306809186935425,0.41403883695602417,-0.06593789905309677,0.6530434489250183,5.148595809936523,-5.741429328918457,6.723486423492432,-429.0191650390625,-270.0736999511719,-41.33224868774414
1781547256829678,106359242,-0.606939971446991,0.4863772988319397,-0.08301682025194168,0.6230324506759644,4.582579135894775,-4.359351634979248,5.5368828773498535,-475.5706787109375,-325.0120544433594,38.12023162841797
1781547256830647,106375909,-0.5883418917655945,0.543011486530304,-0.09456247091293335,0.5916506052017212,4.4213643074035645,-6.090473651885986,0.0576472282409668,-369.6567687988281,-288.195068359375,56.3297119140625
1781547256859140,106392576,-0.5914099812507629,0.5343148112297058,-0.10295334458351135,0.5950988531112671,5.181711196899414,-8.269274711608887,5.101655006408691,11.263833999633789,80.97428131103516,34.22594451904297
1781547256861592,106409243,-0.5944563746452332,0.5321323275566101,-0.11033790558576584,0.5926910042762756,6.382730960845947,-7.184523105621338,3.1485676765441895,-15.331732749938965,28.729421615600586,49.64105224609375
1781547256889384,106425910,-0.5955908894538879,0.5334464311599731,-0.11718259751796722,0.5890456438064575,3.380631923675537,-7.486264228820801,4.342626571655273,-35.35563278198242,9.199023246765137,42.280540466308594
1781547256919624,106442577,-0.5983295440673828,0.5319408774375916,-0.12092478573322296,0.5868714451789856,5.13236141204834,-5.85850191116333,2.9952824115753174,-4.17634916305542,12.01596450805664,33.64503860473633
1781547256920939,106459244,-0.6010977029800415,0.525158703327179,-0.12636476755142212,0.5890005230903625,2.3514482975006104,-7.579418182373047,3.1208770275115967,14.365670204162598,56.0051383972168,26.659149169921875
1781547256949378,106475911,-0.6041398048400879,0.5198100209236145,-0.12901708483695984,0.5900572538375854,6.201065540313721,-7.248476982116699,3.90659499168396,19.78826141357422,34.56853103637695,20.887807846069336
1781547256951798,106492578,-0.6093755960464478,0.5057734847068787,-0.13422878086566925,0.5956824421882629,2.9940030574798584,-8.989368438720703,4.538548946380615,57.38613510131836,94.83059692382812,27.6663875579834
1781547256979229,106509245,-0.612542986869812,0.49719858169555664,-0.14298522472381592,0.5976119637489319,5.862999439239502,-8.397473335266113,8.35537052154541,9.38156509399414,76.36775970458984,41.964229583740234
1781547256981370,106525912,-0.6090973615646362,0.502916157245636,-0.15875180065631866,0.5923459529876709,4.095117568969727,-7.440620422363281,4.7121901512146,-109.30239868164062,29.068479537963867,55.01136779785156
1781547257009459,106542579,-0.6094914674758911,0.5025527477264404,-0.17046277225017548,0.5889850854873657,3.6592469215393066,-6.558454513549805,3.1788642406463623,-51.958770751953125,39.24665832519531,55.28374481201172
1781547257013558,106559246,-0.6119980216026306,0.5003178119659424,-0.1780596226453781,0.586033821105957,3.3722870349884033,-6.967809200286865,3.148189067840576,-19.675561904907227,28.52482032775879,50.099178314208984
1781547257039584,106575913,-0.6157823801040649,0.49548566341400146,-0.1843648999929428,0.5842224359512329,3.1288719177246094,-8.127102851867676,4.343794345855713,2.2476015090942383,35.910621643066406,49.188560485839844
1781547257069186,106592580,-0.61741703748703,0.49094563722610474,-0.192484050989151,0.5837110877037048,2.950875759124756,-8.638006210327148,5.496863842010498,-11.950079917907715,49.57090377807617,40.858001708984375
1781547257071484,106609247,-0.6160455942153931,0.48980244994163513,-0.20382612943649292,0.5822682976722717,2.6668105125427246,-8.917158126831055,6.283742904663086,-50.68555450439453,50.454654693603516,39.13033676147461
1781547257099147,106625914,-0.6107495427131653,0.4946451783180237,-0.21979007124900818,0.5779305100440979,3.011397123336792,-9.084863662719727,5.594557285308838,-111.82113647460938,41.818321228027344,42.85721206665039
1781547257102542,106642581,-0.6028525233268738,0.5032870769500732,-0.241781547665596,0.5699235796928406,3.854921340942383,-8.346619606018066,4.887466907501221,-166.12771606445312,43.487056732177734,62.6927490234375
1781547257129473,106659248,-0.5984507203102112,0.509323000907898,-0.2653816342353821,0.5585869550704956,4.530866622924805,-7.662984848022461,2.509929895401001,-155.07150268554688,43.03471374511719,100.09353637695312
1781547257131853,106675915,-0.5977379083633423,0.5108276009559631,-0.29198917746543884,0.5445246696472168,4.105805397033691,-8.077652931213379,2.278040885925293,-140.03353881835938,56.53989791870117,144.2867889404297
1781547257159192,106692582,-0.6016300916671753,0.5045874714851379,-0.32683494687080383,0.525938868522644,4.5719990730285645,-8.308297157287598,2.694063425064087,-131.96934509277344,94.277099609375,224.63856506347656
1781547257161670,106709249,-0.6113928556442261,0.49052533507347107,-0.3690688908100128,0.4993715286254883,5.153104305267334,-6.647335529327393,2.198401927947998,-123.9208755493164,112.2679214477539,322.1822814941406
1781547257190378,106725916,-0.6263301372528076,0.47179776430130005,-0.4077043831348419,0.46786177158355713,3.7466423511505127,-6.436338424682617,2.0257768630981445,-87.031494140625,83.35330963134766,360.464599609375
1781547257219156,106742583,-0.6415034532546997,0.45538777112960815,-0.43746712803840637,0.4355660676956177,-1.3467880487442017,-7.906325817108154,2.841048240661621,-69.89240264892578,34.45143127441406,329.28466796875
1781547257223369,106759250,-0.6508016586303711,0.44187748432159424,-0.4629172682762146,0.40854543447494507,-7.8113322257995605,-8.374381065368652,0.29025787115097046,-72.28827667236328,40.93109893798828,266.1395568847656
1781547257250209,106775917,-0.6541200876235962,0.4213389754295349,-0.4849112033843994,0.3993265926837921,-10.390767097473145,-7.112096786499023,-1.0461409091949463,7.380324363708496,118.33009338378906,181.50828552246094
1781547257251599,106792584,-0.6527798771858215,0.39522597193717957,-0.5026018023490906,0.406283974647522,-8.932535171508789,-6.3306779861450195,-1.058592438697815,84.71688079833984,176.68222045898438,102.06661224365234
1781547257279670,106809251,-0.6492775082588196,0.3647695779800415,-0.5145082473754883,0.4250449538230896,-7.56364631652832,-6.790323734283447,-0.11652271449565887,155.3057403564453,202.41537475585938,42.32870864868164
1781547257281078,106825918,-0.6431115865707397,0.33258146047592163,-0.5213221311569214,0.4516861140727997,-6.191792011260986,-7.867751121520996,1.7076808214187622,199.14041137695312,213.9420166015625,-7.294954776763916
1781547257309414,106842585,-0.6323160529136658,0.30885905027389526,-0.5221859812736511,0.4817720651626587,-5.594392776489258,-10.762283325195312,5.654062747955322,181.9358673095703,185.79583740234375,-80.87406158447266
1781547257312844,106859252,-0.6197443008422852,0.30499744415283203,-0.5172780156135559,0.5052890181541443,-4.252627372741699,-11.27530574798584,6.735668182373047,87.3161392211914,87.30683135986328,-141.75823974609375
1781547257339521,106875919,-0.6082912683486938,0.31427228450775146,-0.5114362835884094,0.5192760825157166,-1.9823861122131348,-9.099732398986816,4.1896586418151855,3.026465654373169,13.72046184539795,-145.9364013671875
1781547257369644,106892586,-0.6015070080757141,0.3225943446159363,-0.5074834823608398,0.5259114503860474,0.007400209084153175,-7.269742965698242,2.5180182456970215,-15.498497009277344,-7.280144214630127,-91.08023834228516
1781547257371751,106909253,-0.599780261516571,0.3228074610233307,-0.5069272518157959,0.5282838940620422,0.8893282413482666,-8.61192512512207,3.124783515930176,2.0988423824310303,8.987056732177734,-19.331806182861328
1781547257399225,106925920,-0.6008939146995544,0.3183186948299408,-0.5113560557365417,0.5254661440849304,1.1494455337524414,-9.832457542419434,4.5871429443359375,-8.404106140136719,25.204761505126953,39.84279251098633
1781547257403365,106942587,-0.6055124998092651,0.3146820366382599,-0.5190958976745605,0.5146546363830566,0.048430345952510834,-9.917433738708496,5.212789058685303,-44.322811126708984,5.989211082458496,89.78817749023438
1781547257429261,106959254,-0.6117639541625977,0.3135583996772766,-0.5299370288848877,0.4965810179710388,-1.5484576225280762,-9.193998336791992,4.517948150634766,-88.15145111083984,-11.530627250671387,123.54998016357422
1781547257431671,106975921,-0.6195518970489502,0.3143436014652252,-0.5401082038879395,0.47500184178352356,-3.015324831008911,-7.952857494354248,2.9440128803253174,-103.35944366455078,-34.022308349609375,135.14755249023438
1781547257459195,106992588,-0.6278776526451111,0.3161066770553589,-0.5468114614486694,0.45480045676231384,-5.026414394378662,-7.591851711273193,1.6927140951156616,-89.91891479492188,-51.00735092163086,119.90553283691406
1781547257461571,107009255,-0.634933352470398,0.3175278604030609,-0.5504289865493774,0.4393902122974396,-6.1773295402526855,-7.238554954528809,0.8203051686286926,-63.537105560302734,-48.069793701171875,89.82215881347656
1781547257489399,107025922,-0.6408649682998657,0.31735363602638245,-0.5506844520568848,0.4304945468902588,-6.290992736816406,-7.019296646118164,0.45387011766433716,-24.213346481323242,-39.449668884277344,56.678897857666016
1781547257519184,107042589,-0.64573734998703,0.31729328632354736,-0.5475314855575562,0.4272676110267639,-6.278876781463623,-7.218191623687744,0.7073173522949219,4.526492118835449,-38.426414489746094,20.694334030151367
1781547257521758,107059256,-0.6498751044273376,0.317531555891037,-0.5408023595809937,0.42938220500946045,-6.182183265686035,-7.619406700134277,0.652128279209137,32.212623596191406,-40.76486587524414,-14.107417106628418
1781547257549215,107075923,-0.6532554626464844,0.3163308799266815,-0.5320195555686951,0.436058908700943,-5.889926433563232,-7.901947021484375,1.2305504083633423,60.01606750488281,-32.91830062866211,-35.8647575378418
1781547257552235,107092590,-0.6546931266784668,0.31405171751976013,-0.5232229232788086,0.4460787773132324,-5.100099563598633,-8.425389289855957,2.200115442276001,72.90702056884766,-15.371055603027344,-52.79270935058594
1781547257579778,107109257,-0.6550660133361816,0.3135516047477722,-0.5125930905342102,0.4580635726451874,-4.20919942855835,-8.603431701660156,2.902462959289551,75.2916030883789,-21.0073184967041,-75.2635726928711
1781547257581536,107125924,-0.6551917791366577,0.31460773944854736,-0.5008112788200378,0.47003597021102905,-3.493394136428833,-8.524651527404785,3.2239797115325928,71.3340835571289,-30.253854751586914,-83.95552825927734
1781547257610151,107142591,-0.6557455062866211,0.3161906599998474,-0.48831430077552795,0.48121780157089233,-2.943880558013916,-8.424479484558105,3.457113265991211,69.47520446777344,-38.36260986328125,-82.37144470214844
1781547257611674,107159258,-0.6569491028785706,0.31897348165512085,-0.4744282364845276,0.4915197193622589,-2.798229932785034,-8.529376983642578,3.871792793273926,67.1195297241211,-52.6905517578125,-83.30253601074219
1781547257639776,107175925,-0.6582999229431152,0.3228647708892822,-0.4598422646522522,0.5009440183639526,-2.7857940196990967,-8.559671401977539,4.003419399261475,61.93662643432617,-62.003517150878906,-83.9917221069336
1781547257669670,107192592,-0.6593886017799377,0.32749494910240173,-0.4455369710922241,0.509363055229187,-2.7462737560272217,-8.723978996276855,4.279580116271973,53.86399459838867,-64.68154907226562,-82.05685424804688
1781547257671872,107209259,-0.6594212651252747,0.33161044120788574,-0.4337044656276703,0.5168158411979675,-2.4827749729156494,-8.743314743041992,4.683075904846191,42.198326110839844,-50.60700607299805,-74.22954559326172
1781547257699289,107225926,-0.6586102247238159,0.33542099595069885,-0.42430537939071655,0.5231543779373169,-2.125582695007324,-8.573291778564453,4.668006896972656,29.685569763183594,-38.515480041503906,-65.718017578125
1781547257701662,107242593,-0.6574613451957703,0.33759739995002747,-0.41707393527030945,0.5289821028709412,-2.032611846923828,-8.754036903381348,4.92716121673584,27.017555236816406,-23.014366149902344,-54.8521728515625
1781547257729372,107259260,-0.6557976007461548,0.33985984325408936,-0.41184335947036743,0.5336758494377136,-1.596733808517456,-8.455340385437012,4.892910957336426,14.903703689575195,-15.43840503692627,-47.20108413696289
1781547257731988,107275927,-0.6543286442756653,0.342441588640213,-0.40652996301651,0.5378860235214233,-1.7304027080535889,-8.44080638885498,4.492698669433594,12.852396011352539,-18.665462493896484,-45.402889251708984
1781547257759694,107292594,-0.6529415249824524,0.3447953760623932,-0.40101298689842224,0.5421922206878662,-1.7340835332870483,-8.523616790771484,4.486255168914795,15.091468811035156,-18.740333557128906,-45.37586975097656
1781547257761130,107309261,-0.6515226364135742,0.34679359197616577,-0.39604130387306213,0.5462636351585388,-1.4835045337677002,-8.593437194824219,4.568869113922119,13.931757926940918,-15.436753273010254,-42.16693878173828
1781547257789463,107325928,-0.650417149066925,0.348045289516449,-0.39186233282089233,0.5497872829437256,-1.0875186920166016,-8.592743873596191,4.746622562408447,13.553692817687988,-11.24188232421875,-34.61281204223633
1781547257819172,107342595,-0.6498119831085205,0.3489515483379364,-0.3886163532733917,0.5522271394729614,-0.9774227142333984,-8.598331451416016,4.9188232421875,9.848167419433594,-9.705151557922363,-24.712671279907227
1781547257821580,107359262,-0.6495078206062317,0.34961146116256714,-0.3866405487060547,0.5535526871681213,-1.0269793272018433,-8.620912551879883,4.933572769165039,3.870678424835205,-6.572571277618408,-14.88491153717041
1781547257849208,107375929,-0.6493350267410278,0.350089967250824,-0.38567957282066345,0.5541229844093323,-1.1205222606658936,-8.565682411193848,4.8810272216796875,-0.8740464448928833,-3.5154716968536377,-8.09046459197998
1781547257851203,107392596,-0.6491743922233582,0.35052254796028137,-0.3852504789829254,0.5543362498283386,-1.2416865825653076,-8.48976993560791,4.7687811851501465,-3.6137349605560303,-1.8573051691055298,-5.0496087074279785
1781547257879346,107409263,-0.6489841341972351,0.3509947955608368,-0.3848540484905243,0.5545356869697571,-1.3236969709396362,-8.467552185058594,4.723196029663086,-4.024344444274902,-1.8180663585662842,-5.126958847045898
1781547257881660,107425930,-0.6486735343933105,0.3515462577342987,-0.38443782925605774,0.5548383593559265,-1.3301740884780884,-8.486542701721191,4.688487529754639,-4.320544242858887,-1.6405324935913086,-6.304286479949951
1781547257909333,107442597,-0.6483174562454224,0.35215240716934204,-0.38384976983070374,0.5552769899368286,-1.2817773818969727,-8.474419593811035,4.681339740753174,-3.6592607498168945,-2.16767954826355,-7.643803119659424
1781547257911111,107459264,-0.6478909254074097,0.3528047800064087,-0.38319993019104004,0.5558094382286072,-1.2172082662582397,-8.485325813293457,4.7206339836120605,-3.5532636642456055,-2.20638108253479,-8.603910446166992
1781547257939531,107475931,-0.6474923491477966,0.3534529209136963,-0.3825535774230957,0.5563071966171265,-1.1682037115097046,-8.513509750366211,4.723873138427734,-3.5719990730285645,-2.3323826789855957,-8.324334144592285
1781547257969999,107492598,-0.6471347212791443,0.35408711433410645,-0.38198578357696533,0.5567100048065186,-1.1249586343765259,-8.499518394470215,4.694090843200684,-3.961606740951538,-2.2688372135162354,-7.516598701477051
1781547257971974,107509265,-0.6468889117240906,0.3546534776687622,-0.3813208043575287,0.5570909976959229,-1.1350847482681274,-8.501032829284668,4.698991775512695,-3.0733582973480225,-2.7884552478790283,-7.050076007843018
1781547257999967,107525932,-0.6466689109802246,0.35510584712028503,-0.38065528869628906,0.5575129985809326,-1.0954021215438843,-8.491057395935059,4.739847183227539,-2.394044876098633,-2.3223037719726562,-6.836338043212891
1781547258000981,107542599,-0.6465165615081787,0.35544130206108093,-0.38001638650894165,0.5579116940498352,-1.0853179693222046,-8.52285099029541,4.69100284576416,-1.8730442523956299,-1.9892362356185913,-6.103801727294922
1781547258029339,107559266,-0.6464131474494934,0.3557478189468384,-0.3794099688529968,0.55824875831604,-1.0742472410202026,-8.479918479919434,4.775813102722168,-1.9109891653060913,-2.0123515129089355,-5.487508296966553
1781547258031717,107575933,-0.6462977528572083,0.35608547925949097,-0.3788544535636902,0.5585443377494812,-1.0987358093261719,-8.486083030700684,4.747191905975342,-2.3836076259613037,-1.9771339893341064,-5.305581092834473
1781547258059329,107592600,-0.6461507678031921,0.3564721941947937,-0.37829625606536865,0.5588458776473999,-1.0659302473068237,-8.490299224853516,4.756621837615967,-2.6533100605010986,-2.0804944038391113,-5.5892815589904785
1781547258061937,107609267,-0.6459864377975464,0.3568650782108307,-0.3777906596660614,0.5591272711753845,-1.0590509176254272,-8.504642486572266,4.745109558105469,-2.9786674976348877,-1.8747860193252563,-5.4537129402160645
1781547258089310,107625934,-0.6458196043968201,0.35728779435157776,-0.3772661089897156,0.5594040155410767,-1.0452959537506104,-8.487524032592773,4.776198863983154,-3.056978702545166,-2.078176259994507,-5.5671257972717285
1781547258119033,107642601,-0.6456288695335388,0.35774916410446167,-0.37676239013671875,0.5596687197685242,-1.0454927682876587,-8.49465274810791,4.766598224639893,-3.399561882019043,-2.102931261062622,-5.654568672180176
1781547258121400,107659268,-0.6454224586486816,0.3582676947116852,-0.37630265951156616,0.5598844289779663,-0.9752689003944397,-8.505989074707031,4.772233009338379,-3.9887425899505615,-2.207814931869507,-5.538426876068115
1781547258149115,107675935,-0.6452177166938782,0.3587283194065094,-0.3760331869125366,0.5600064396858215,-0.940514326095581,-8.52410888671875,4.76057767868042,-4.702927589416504,-1.375466227531433,-4.498256206512451
1781547258150841,107692602,-0.6450566053390503,0.35910463333129883,-0.37593477964401245,0.560016930103302,-0.9336469173431396,-8.520838737487793,4.796572685241699,-5.169206142425537,-0.6799787878990173,-3.195760488510132
1781547258179931,107709269,-0.6449509859085083,0.35941317677497864,-0.3759947717189789,0.5599005222320557,-0.9477189779281616,-8.50987434387207,4.749174118041992,-5.670716762542725,-0.1737181693315506,-1.853540301322937
1781547258181534,107725936,-0.6449061632156372,0.35963937640190125,-0.37611716985702515,0.5597245693206787,-0.9583942890167236,-8.51853084564209,4.70864725112915,-5.550246715545654,0.11590386927127838,-0.9883044958114624
1781547258209409,107742603,-0.6449025869369507,0.3597761392593384,-0.3762841522693634,0.5595285892486572,-0.9689846038818359,-8.531109809875488,4.7016706466674805,-5.27549934387207,0.5013110041618347,-0.4003649652004242
1781547258211931,107759270,-0.6449357867240906,0.35985490679740906,-0.3764384686946869,0.5593357086181641,-0.9637511968612671,-8.51128101348877,4.715488433837891,-4.871612548828125,0.5801340937614441,-0.15390673279762268
1781547258239554,107775937,-0.644980251789093,0.359889954328537,-0.3765717148780823,0.5591720342636108,-0.9859110116958618,-8.517842292785645,4.682333469390869,-4.493581771850586,0.6982598900794983,-0.17985239624977112
1781547258269362,107792604,-0.6450410485267639,0.3598625957965851,-0.376661479473114,0.559059202671051,-0.9981821775436401,-8.52241039276123,4.698634624481201,-3.878122091293335,0.8283340334892273,-0.29048648476600647
1781547258271883,107809271,-0.645090639591217,0.35980576276779175,-0.37674790620803833,0.5589802861213684,-1.0055447816848755,-8.497769355773926,4.711970329284668,-3.675551176071167,1.0401766300201416,-0.4157582223415375
1781547258299151,107825938,-0.6451494097709656,0.35977569222450256,-0.3767876923084259,0.5589051246643066,-1.0327647924423218,-8.501537322998047,4.721003532409668,-3.5836777687072754,0.7157533168792725,-0.5814467072486877
1781547258301678,107842605,-0.6451705694198608,0.35981208086013794,-0.37671783566474915,0.5589042901992798,-1.0260133743286133,-8.504502296447754,4.6720290184021,-3.358670473098755,0.2547503113746643,-1.4990473985671997
1781547258329819,107859272,-0.6451703906059265,0.35985299944877625,-0.3764404058456421,0.5590649843215942,-1.0351300239562988,-8.495192527770996,4.697141647338867,-2.2160239219665527,-0.228900745511055,-2.8245303630828857
1781547258331682,107875939,-0.6451377272605896,0.35991212725639343,-0.3760429620742798,0.5593321323394775,-1.016795039176941,-8.506851196289062,4.718496799468994,-1.6415435075759888,-0.4835549294948578,-3.7659504413604736
1781547258359176,107892606,-0.6450884938240051,0.3599933087825775,-0.37557515501976013,0.5596508979797363,-1.002140760421753,-8.507657051086426,4.699880599975586,-1.3762600421905518,-0.7107268571853638,-4.29035758972168
1781547258361148,107909273,-0.6450386643409729,0.3600992262363434,-0.3750993311405182,0.559959352016449,-0.9554017186164856,-8.496481895446777,4.743052005767822,-1.48434579372406,-0.8653892278671265,-4.331018447875977
1781547258389447,107925940,-0.6449785828590393,0.360161691904068,-0.37470901012420654,0.560249388217926,-0.9019011855125427,-8.514678001403809,4.751587867736816,-1.694766879081726,-0.3392530381679535,-3.9648590087890625
1781547258419169,107942607,-0.6449691653251648,0.3601298928260803,-0.37454754114151,0.5603886842727661,-0.8823723793029785,-8.520007133483887,4.78165340423584,-2.422013759613037,0.5352093577384949,-2.292733669281006
1781547258421213,107959274,-0.6450634598731995,0.3602525293827057,-0.3745075762271881,0.5602279901504517,-0.8818926811218262,-8.544610977172852,4.761704921722412,-4.090719223022461,-0.5304645895957947,-0.6608588099479675
1781547258449203,107975941,-0.6452407836914062,0.3601537048816681,-0.3746335208415985,0.5600032210350037,-0.9195922613143921,-8.50455093383789,4.748457431793213,-3.708155870437622,0.6856968998908997,0.9242151975631714
1781547258450763,107992608,-0.6454221606254578,0.36015990376472473,-0.37470588088035583,0.5597416758537292,-0.984920859336853,-8.495826721191406,4.767286777496338,-4.053183555603027,-0.05884517356753349,0.7004753351211548
1781547258479954,108009275,-0.6455516815185547,0.36012008786201477,-0.3746929168701172,0.559626579284668,-1.0035550594329834,-8.47984504699707,4.7341628074646,-3.2730469703674316,0.23551517724990845,-0.2432565987110138
1781547258480949,108025942,-0.6455931067466736,0.3601410686969757,-0.37460049986839294,0.559627115726471,-0.9954085946083069,-8.501579284667969,4.736439228057861,-3.157930612564087,0.16255739331245422,-1.4484748840332031
1781547258509711,108042609,-0.6455949544906616,0.3601922392845154,-0.37448567152023315,0.559669017791748,-0.9551968574523926,-8.503703117370605,4.7576904296875,-3.198411703109741,0.15109573304653168,-1.9193004369735718
1781547258511535,108059276,-0.645591139793396,0.36022666096687317,-0.3744654953479767,0.5596646666526794,-0.9321197867393494,-8.512374877929688,4.760210037231445,-3.6217386722564697,0.5354271531105042,-1.4582592248916626
1781547258539402,108075943,-0.6456171870231628,0.3602016270160675,-0.3745719790458679,0.5595794320106506,-0.9243622422218323,-8.525373458862305,4.766934871673584,-3.980546474456787,1.048807978630066,-0.5178247094154358
1781547258569936,108092610,-0.6456907987594604,0.360138863325119,-0.3747600018978119,0.5594089031219482,-0.9496974945068359,-8.5082368850708,4.76495361328125,-4.229822158813477,1.2218858003616333,0.3409498631954193
1781547258571667,108109277,-0.6457419395446777,0.3600928783416748,-0.3749982714653015,0.5592198371887207,-0.9690830707550049,-8.498834609985352,4.739155292510986,-4.601718425750732,1.3923383951187134,0.4178391396999359
1781547258599324,108125944,-0.6457828879356384,0.3600383698940277,-0.37519022822380066,0.5590789318084717,-0.9767921566963196,-8.50004768371582,4.737866401672363,-4.287911891937256,1.364945650100708,0.07140181213617325
1781547258601380,108142611,-0.6457927823066711,0.3599909543991089,-0.3753564953804016,0.5589863657951355,-0.9944933652877808,-8.508499145507812,4.727474689483643,-4.173282146453857,1.423662781715393,-0.34418347477912903
1781547258629380,108159278,-0.6458055973052979,0.3599601686000824,-0.375509649515152,0.5588885545730591,-0.980938196182251,-8.497321128845215,4.749250411987305,-4.20424747467041,1.2800265550613403,-0.3857272267341614
1781547258631109,108175945,-0.6458062529563904,0.3599427342414856,-0.37569659948349,0.5587733387947083,-0.9759433269500732,-8.506085395812988,4.738836288452148,-4.469045162200928,1.3674556016921997,-0.3069554269313812
1781547258660112,108192612,-0.6458254456520081,0.3599373996257782,-0.37590277194976807,0.5586159825325012,-0.9827414751052856,-8.504483222961426,4.737689971923828,-4.660691261291504,1.2537095546722412,-0.032694607973098755
1781547258661168,108209279,-0.6458411812782288,0.35995981097221375,-0.37605321407318115,0.5584821105003357,-0.9984752535820007,-8.495396614074707,4.726590633392334,-4.518516540527344,0.9660534262657166,-0.3601914346218109
1781547258689632,108225946,-0.6458569765090942,0.35995587706565857,-0.37620028853416443,0.5583672523498535,-0.9953559041023254,-8.50232982635498,4.721151828765869,-4.34037971496582,1.0998029708862305,-0.3854839503765106
1781547258719240,108242613,-0.6458661556243896,0.359954833984375,-0.37635403871536255,0.5582537651062012,-1.0042368173599243,-8.50363826751709,4.716665267944336,-4.3928728103637695,1.1385294198989868,-0.4086378514766693
1781547258722283,108259280,-0.6458516120910645,0.3599911034107208,-0.37651440501213074,0.558138906955719,-0.9949217438697815,-8.505217552185059,4.7290120124816895,-4.647156238555908,1.083065152168274,-0.5736860632896423
1781547258749284,108275947,-0.6458520889282227,0.3600322902202606,-0.37665030360221863,0.5580201745033264,-1.0028942823410034,-8.514650344848633,4.722316265106201,-4.548418998718262,0.906619131565094,-0.5727769136428833
1781547258751685,108292614,-0.6458749771118164,0.360049307346344,-0.3767482042312622,0.5579166412353516,-0.9985866546630859,-8.534592628479004,4.688948631286621,-4.201776027679443,0.8095470070838928,-0.5872095823287964
1781547258779970,108309281,-0.6459255218505859,0.36003002524375916,-0.37678641080856323,0.5578446984291077,-1.009881854057312,-8.521032333374023,4.668869495391846,-3.6614513397216797,0.6901022791862488,-0.6749330759048462
1781547258781877,108325948,-0.6460094451904297,0.35997211933135986,-0.37679529190063477,0.5577789545059204,-0.9918438792228699,-8.51490592956543,4.709075927734375,-3.2801289558410645,0.6365972757339478,-0.5485600233078003
1781547258809289,108342615,-0.6460889577865601,0.35992559790611267,-0.3767998218536377,0.5577136874198914,-0.9876689314842224,-8.516504287719727,4.710496425628662,-3.3246567249298096,0.5861915349960327,-0.6084681749343872
1781547258811372,108359282,-0.6462035179138184,0.3598799407482147,-0.37677910923957825,0.5576243996620178,-1.0164459943771362,-8.516166687011719,4.684876441955566,-3.2078752517700195,0.3210616111755371,-0.4327009618282318
1781547258839429,108375949,-0.6462838053703308,0.3598875403404236,-0.37670189142227173,0.5575787425041199,-1.029404640197754,-8.503860473632812,4.737764835357666,-3.2005114555358887,0.0614512674510479,-1.035790205001831
1781547258869730,108392616,-0.6463034749031067,0.3599565029144287,-0.3766084611415863,0.5575745105743408,-1.0237236022949219,-8.507487297058105,4.733486652374268,-3.4547057151794434,0.014144616201519966,-1.651955485343933
1781547258871286,108409283,-0.6462833881378174,0.36008620262145996,-0.3765179514884949,0.5575752258300781,-0.9993858337402344,-8.500840187072754,4.75573205947876,-3.8227851390838623,-0.09141173213720322,-1.976954698562622
1781547258899243,108425950,-0.6462075114250183,0.3602432608604431,-0.37649351358413696,0.5575781464576721,-0.9966576099395752,-8.505895614624023,4.746260166168213,-4.330876350402832,0.24788610637187958,-2.1099486351013184
1781547258901942,108442617,-0.6460765600204468,0.36048877239227295,-0.37650683522224426,0.5575622916221619,-1.0029377937316895,-8.492964744567871,4.758699417114258,-5.0543975830078125,0.1714065819978714,-2.3722994327545166
1781547258929411,108459284,-0.6459200382232666,0.36077016592025757,-0.3765753209590912,0.5575155019760132,-0.9945257306098938,-8.514581680297852,4.728663444519043,-5.570096969604492,0.2679024636745453,-2.2894811630249023
1781547258932168,108475951,-0.6457645297050476,0.3610858619213104,-0.3766147196292877,0.557464599609375,-1.010903000831604,-8.525249481201172,4.7069807052612305,-5.620169162750244,-0.005327442195266485,-2.429326295852661
1781547258959365,108492618,-0.6455803513526917,0.3613779842853546,-0.37664473056793213,0.5574683547019958,-0.9928416013717651,-8.537823677062988,4.654661655426025,-5.410325050354004,0.2531111240386963,-2.744144916534424
1781547258961918,108509285,-0.6454479098320007,0.3615807294845581,-0.3766597807407379,0.557479977607727,-0.9786730408668518,-8.549581527709961,4.659717082977295,-4.808016300201416,0.4144967198371887,-2.387462615966797
1781547258990747,108525952,-0.6453380584716797,0.361718088388443,-0.3767501413822174,0.5574570298194885,-0.9414387345314026,-8.539127349853516,4.670953750610352,-4.840429782867432,0.8553555011749268,-1.7919158935546875
1781547259019288,108542619,-0.6452888250350952,0.36172646284103394,-0.37691831588745117,0.5573949217796326,-0.9525628089904785,-8.54965877532959,4.657106399536133,-4.517940521240234,1.4393635988235474,-0.858371376991272
1781547259021893,108559286,-0.6453104019165039,0.36165115237236023,-0.3771304190158844,0.5572753548622131,-0.9729795455932617,-8.550552368164062,4.697004795074463,-4.2890520095825195,1.6281291246414185,-0.006364756729453802
1781547259049238,108575953,-0.6453205943107605,0.3615933060646057,-0.3773455321788788,0.5571553707122803,-0.9976682066917419,-8.537113189697266,4.689878940582275,-4.408215045928955,1.6038483381271362,-0.08643006533384323
1781547259052099,108592620,-0.6453044414520264,0.3615739047527313,-0.37752071022987366,0.5570679306983948,-0.9955845475196838,-8.511015892028809,4.688568115234375,-4.407510757446289,1.4280682802200317,-0.5312587022781372
1781547259079710,108609287,-0.6452207565307617,0.36159178614616394,-0.3776629865169525,0.5570569038391113,-1.016833782196045,-8.521496772766113,4.680676460266113,-4.417831897735596,1.505303144454956,-1.3086167573928833
1781547259081881,108625954,-0.6450125575065613,0.3616236746311188,-0.377866268157959,0.5571394562721252,-1.0137351751327515,-8.523533821105957,4.698444843292236,-4.780790328979492,2.2776029109954834,-2.085719108581543
1781547259109402,108642621,-0.6447197794914246,0.36153626441955566,-0.3782939016819,0.5572448968887329,-0.997273862361908,-8.551044464111328,4.673488140106201,-5.263615131378174,4.005039215087891,-1.6445019245147705
1781547259111572,108659288,-0.6442649960517883,0.3612580895423889,-0.37906578183174133,0.5574266314506531,-0.9989638924598694,-8.552607536315918,4.673427104949951,-5.941596508026123,6.873380184173584,-1.2519360780715942
1781547259139722,108675955,-0.6436611413955688,0.36082616448402405,-0.3800671398639679,0.5577220916748047,-1.042457938194275,-8.526036262512207,4.677117824554443,-6.214834213256836,9.14939022064209,-1.3568077087402344
1781547259169871,108692622,-0.6429607272148132,0.36057236790657043,-0.38096559047698975,0.5580810904502869,-1.076522707939148,-8.541147232055664,4.635570526123047,-6.6822662353515625,8.42164421081543,-2.729712963104248
1781547259171652,108709289,-0.6421184539794922,0.36037132143974304,-0.3817327916622162,0.5586560368537903,-1.083235740661621,-8.532830238342285,4.672894477844238,-6.1991729736328125,8.544791221618652,-4.693606376647949
1781547259199385,108725956,-0.6409342288970947,0.35992124676704407,-0.38272640109062195,0.559625506401062,-1.0843291282653809,-8.535465240478516,4.656984806060791,-5.782020568847656,12.375598907470703,-6.535252094268799
1781547259202504,108742623,-0.6396952271461487,0.3594622015953064,-0.38362565636634827,0.5607213973999023,-1.0055125951766968,-8.560729026794434,4.604293346405029,-5.1826958656311035,12.45114517211914,-7.514286518096924
1781547259229319,108759290,-0.638375461101532,0.3588535189628601,-0.3846214711666107,0.5619319081306458,-1.0398640632629395,-8.580615997314453,4.630492687225342,-4.795354843139648,13.949435234069824,-7.696993827819824
1781547259231536,108775957,-0.6370649933815002,0.3583057224750519,-0.3855455815792084,0.563133955001831,-1.0273594856262207,-8.567419052124023,4.597799777984619,-4.785353183746338,13.352917671203613,-7.961893558502197
1781547259259268,108792624,-0.6358659863471985,0.3579528033733368,-0.38628146052360535,0.5642083287239075,-1.0161315202713013,-8.593409538269043,4.555481910705566,-4.975039958953857,11.163616180419922,-7.953069686889648
1781547259261816,108809291,-0.6348057389259338,0.35769206285476685,-0.38688263297080994,0.5651550889015198,-0.9691334366798401,-8.600051879882812,4.545741081237793,-4.85341739654541,9.534427642822266,-7.433538913726807
1781547259289461,108825958,-0.6339172124862671,0.3574585020542145,-0.38744959235191345,0.5659111738204956,-0.9517993927001953,-8.583456993103027,4.575819969177246,-4.924439907073975,8.353501319885254,-6.091790676116943
1781547259319352,108842625,-0.6331958770751953,0.35729971528053284,-0.38794660568237305,0.5664780139923096,-0.9685860872268677,-8.590973854064941,4.572533130645752,-5.071917533874512,6.847384452819824,-4.988112926483154
1781547259321152,108859292,-0.6326289176940918,0.3571917712688446,-0.3883030116558075,0.5669352412223816,-0.9770519137382507,-8.586715698242188,4.545291900634766,-4.658874034881592,5.355405330657959,-4.39076042175293
1781547259349900,108875959,-0.632253885269165,0.3571334779262543,-0.3884490132331848,0.567290186882019,-0.9853232502937317,-8.593279838562012,4.5410475730896,-3.8579773902893066,3.482565402984619,-3.8477838039398193
1781547259351463,108892626,-0.632028341293335,0.35714948177337646,-0.38844186067581177,0.5675364136695862,-0.9620904922485352,-8.576955795288086,4.563447952270508,-3.507262945175171,1.8611407279968262,-3.3675708770751953
1781547259381325,108909293,-0.6319060921669006,0.35717862844467163,-0.3883926570415497,0.5676878094673157,-0.9744777679443359,-8.583492279052734,4.575935363769531,-3.401174783706665,1.1177319288253784,-2.6907291412353516
1781547259382576,108925960,-0.6318525075912476,0.35726162791252136,-0.38834714889526367,0.5677262544631958,-0.9735020399093628,-8.585736274719238,4.58071231842041,-3.7836875915527344,0.46342983841896057,-2.0672779083251953
1781547259409453,108942627,-0.6318577527999878,0.35734155774116516,-0.38831430673599243,0.5676926374435425,-0.9776092767715454,-8.591471672058105,4.559739112854004,-3.868208885192871,0.19604599475860596,-1.486048698425293
1781547259411756,108959294,-0.6319307684898376,0.35741233825683594,-0.388271301984787,0.5675962567329407,-0.9830998182296753,-8.592671394348145,4.551270484924316,-3.7907187938690186,-0.14772126078605652,-0.9493860602378845
1781547259440040,108975961,-0.6320253610610962,0.3574979305267334,-0.3881695866584778,0.5675065517425537,-1.002708077430725,-8.599139213562012,4.540642261505127,-3.55627179145813,-0.5019960999488831,-1.079088568687439
1781547259469410,108992628,-0.6321058869361877,0.3576061725616455,-0.3879929184913635,0.5674693584442139,-0.9900625944137573,-8.577651023864746,4.571939468383789,-3.2574360370635986,-0.7495044469833374,-1.607094645500183
1781547259471129,109009295,-0.6322128772735596,0.35772740840911865,-0.3878108263015747,0.5673984289169312,-0.9806857109069824,-8.59599781036377,4.573684215545654,-3.318765640258789,-0.977175772190094,-1.4049335718154907
1781547259499366,109025962,-0.6323296427726746,0.35783493518829346,-0.38765817880630493,0.567304790019989,-0.9774643182754517,-8.574268341064453,4.59575891494751,-3.4117398262023926,-0.8774271607398987,-1.161651372909546
1781547259501253,109042629,-0.6324313282966614,0.35793188214302063,-0.3875390887260437,0.5672115087509155,-0.9609319567680359,-8.58558464050293,4.571982383728027,-3.5335538387298584,-0.6498838663101196,-1.110144019126892
1781547259529724,109059296,-0.6325467824935913,0.3579946458339691,-0.3874547481536865,0.5671007633209229,-0.9824150204658508,-8.589144706726074,4.585478782653809,-3.5338356494903564,-0.44590431451797485,-0.8047254681587219
1781547259531166,109075963,-0.6326757073402405,0.3580475449562073,-0.3873997926712036,0.5669610500335693,-0.9571991562843323,-8.588533401489258,4.54563045501709,-3.6503477096557617,-0.3873280882835388,-0.5282619595527649
1781547259560011,109092630,-0.6327943205833435,0.35809651017189026,-0.3873259723186493,0.5668482184410095,-0.9853464365005493,-8.586648941040039,4.559269428253174,-3.5149974822998047,-0.35980722308158875,-0.72147136926651
1781547259561476,109109297,-0.6328981518745422,0.3581700325012207,-0.3872028589248657,0.566770076751709,-0.9841070771217346,-8.591008186340332,4.572699546813965,-3.3742172718048096,-0.5454608798027039,-1.1173540353775024
1781547259589505,109125964,-0.6330057382583618,0.35826849937438965,-0.3870452642440796,0.5666951537132263,-1.0097395181655884,-8.584532737731934,4.583946228027344,-3.3316617012023926,-0.7946212291717529,-1.2687251567840576
1781547259619431,109142631,-0.6330668330192566,0.358362078666687,-0.3868996202945709,0.5666671991348267,-0.9902982711791992,-8.577764511108398,4.582418441772461,-3.3470163345336914,-0.4847460091114044,-1.611538290977478
1781547259621519,109159298,-0.633101224899292,0.35845568776130676,-0.38676783442497253,0.5666595101356506,-0.9855490922927856,-8.580277442932129,4.57251501083374,-3.4146339893341064,-0.3044966161251068,-1.7703371047973633
1781547259649429,109175965,-0.6331186294555664,0.35852912068367004,-0.3866502344608307,0.5666739344596863,-0.9687022566795349,-8.595405578613281,4.584117889404297,-3.366098403930664,-0.06396772712469101,-1.8449982404708862
1781547259651595,109192632,-0.6331530809402466,0.35855409502983093,-0.38658177852630615,0.566666305065155,-0.9404014348983765,-8.603550910949707,4.570047855377197,-3.3632678985595703,0.2392418384552002,-1.4329410791397095
1781547259680936,109209299,-0.6332070827484131,0.358568012714386,-0.3865751028060913,0.5666016936302185,-0.9556514024734497,-8.585017204284668,4.609288692474365,-3.6606826782226562,0.358302503824234,-0.9275639057159424
1781547259681841,109225966,-0.6332494616508484,0.3585658073425293,-0.38663503527641296,0.5665149092674255,-0.9550796747207642,-8.594079971313477,4.587768077850342,-3.9382095336914062,0.6869775056838989,-0.6701563596725464
1781547259709405,109242633,-0.6333019733428955,0.35858118534088135,-0.3866787850856781,0.5664165616035461,-0.9761349558830261,-8.593491554260254,4.564521789550781,-3.9588019847869873,0.4925259053707123,-0.6672749519348145
1781547259711173,109259300,-0.6333476901054382,0.35856977105140686,-0.3866746127605438,0.5663754940032959,-0.977475106716156,-8.591826438903809,4.552348613739014,-3.5202221870422363,0.5480412840843201,-0.9898412823677063
1781547259739540,109275967,-0.6333948969841003,0.3585481345653534,-0.38663673400878906,0.5663622617721558,-0.9701724648475647,-8.58713150024414,4.576627254486084,-3.2681033611297607,0.5056906938552856,-1.1629701852798462
1781547259769292,109292634,-0.6334038376808167,0.358569860458374,-0.38658154010772705,0.5663761496543884,-0.9812553524971008,-8.584999084472656,4.571758270263672,-3.412508249282837,0.42954421043395996,-1.587795376777649
1781547259771570,109309301,-0.6333980560302734,0.35857510566711426,-0.3865370452404022,0.5664096474647522,-0.9730953574180603,-8.589609146118164,4.585562229156494,-3.3675456047058105,0.6268260478973389,-1.6616753339767456
1781547259800387,109325968,-0.6333726048469543,0.35860008001327515,-0.3865492343902588,0.566413938999176,-0.9617447257041931,-8.591703414916992,4.597548007965088,-3.801039695739746,0.7772622108459473,-1.523404836654663
1781547259801323,109342635,-0.6333398222923279,0.3586547374725342,-0.38660937547683716,0.5663749575614929,-0.9711809754371643,-8.580058097839355,4.589874267578125,-4.2510809898376465,0.7829610705375671,-1.324778437614441
1781547259830067,109359302,-0.6332915425300598,0.3587222993373871,-0.3866608142852783,0.5663509964942932,-0.9656109809875488,-8.597766876220703,4.53331995010376,-4.272685527801514,0.7734587788581848,-1.507115364074707
1781547259830973,109375969,-0.6332552433013916,0.3587909936904907,-0.38667523860931396,0.5663383603096008,-0.9594879746437073,-8.591582298278809,4.529612064361572,-4.074915885925293,0.6025707721710205,-1.6037136316299438
1781547259859758,109392636,-0.6332241296768188,0.35883355140686035,-0.3866397738456726,0.56637042760849,-0.9803372025489807,-8.598393440246582,4.53337287902832,-3.635364055633545,0.5848723649978638,-1.832012414932251
1781547259861147,109409303,-0.6332291960716248,0.3588522672653198,-0.38653063774108887,0.5664273500442505,-0.9567765593528748,-8.599416732788086,4.527585029602051,-3.0903000831604004,0.3218427300453186,-1.9189674854278564
1781547259889665,109425970,-0.6332657933235168,0.35886284708976746,-0.3864232003688812,0.5664530396461487,-0.9646602869033813,-8.601736068725586,4.561654567718506,-3.068209409713745,0.19984948635101318,-1.6346408128738403
1781547259919279,109442637,-0.6332866549491882,0.3588609993457794,-0.3863587975502014,0.5664747357368469,-0.9576317667961121,-8.603132247924805,4.585206031799316,-3.2307729721069336,0.4672716557979584,-1.539617657661438
1781547259921136,109459304,-0.6332946419715881,0.35885125398635864,-0.38632258772850037,0.5664966702461243,-0.9608525633811951,-8.583239555358887,4.584034442901611,-3.3385510444641113,0.6553969383239746,-1.499764323234558
1781547259949292,109475971,-0.6332958340644836,0.358819842338562,-0.3863397538661957,0.5665035843849182,-0.9613810181617737,-8.578631401062012,4.580994129180908,-3.5099265575408936,0.9530167579650879,-1.272925853729248
1781547259952976,109492638,-0.6332966089248657,0.35880348086357117,-0.38636866211891174,0.5664933919906616,-0.9687266945838928,-8.598138809204102,4.585628509521484,-3.6677775382995605,0.9043141603469849,-1.211749792098999
1781547259979801,109509305,-0.6332566142082214,0.35880497097969055,-0.3864285349845886,0.5664963126182556,-0.965943455696106,-8.57474136352539,4.565358638763428,-3.933598518371582,1.109689474105835,-1.3988118171691895
1781547259980913,109525972,-0.6332288384437561,0.3587977886199951,-0.3864686191082001,0.5665045380592346,-0.957918107509613,-8.592127799987793,4.550128936767578,-3.774850606918335,1.0380250215530396,-1.4000028371810913
1781547260009297,109542639,-0.63321852684021,0.35879817605018616,-0.3864988684654236,0.5664951801300049,-0.9575676918029785,-8.595050811767578,4.568573474884033,-3.7737879753112793,0.875960648059845,-1.3003822565078735
1781547260012397,109559306,-0.6332148909568787,0.3587758243083954,-0.38653481006622314,0.5664889812469482,-0.9672434329986572,-8.605474472045898,4.555365085601807,-3.673412322998047,0.9792441129684448,-1.2141190767288208
1781547260039477,109575973,-0.6332314014434814,0.3587612211704254,-0.3865532875061035,0.5664671063423157,-0.9640803337097168,-8.587716102600098,4.560462474822998,-3.631740093231201,0.7802589535713196,-1.131389856338501
1781547260069332,109592640,-0.6332505345344543,0.3587615489959717,-0.3865662217140198,0.5664367079734802,-0.9652602076530457,-8.593728065490723,4.571491718292236,-3.692032814025879,0.6698554158210754,-1.1382670402526855
1781547260071550,109609307,-0.633254885673523,0.3587520718574524,-0.38654112815856934,0.5664549469947815,-0.9746586680412292,-8.57932186126709,4.557344913482666,-3.4089865684509277,0.7023195028305054,-1.4764186143875122
1781547260099766,109625974,-0.6332435607910156,0.35873693227767944,-0.38652607798576355,0.5664873719215393,-0.9581280946731567,-8.587419509887695,4.568478584289551,-3.4250457286834717,0.8442266583442688,-1.5589938163757324
1781547260100762,109642641,-0.6332366466522217,0.35873085260391235,-0.38654372096061707,0.5664869546890259,-0.9498023986816406,-8.590807914733887,4.589874744415283,-3.6693778038024902,0.8582367897033691,-1.3419134616851807
1781547260129867,109659308,-0.6332376599311829,0.3587258756160736,-0.38660988211631775,0.5664438009262085,-0.9598368406295776,-8.593558311462402,4.560224533081055,-3.9578278064727783,0.9381867051124573,-1.0091402530670166
1781547260130974,109675975,-0.6332331895828247,0.35872846841812134,-0.3866756558418274,0.5664021968841553,-0.9635626077651978,-8.593953132629395,4.582784652709961,-3.999614953994751,0.9259567260742188,-1.058867335319519
1781547260159797,109692642,-0.6332331895828247,0.358710914850235,-0.3867204487323761,0.5663828253746033,-0.9647051095962524,-8.58532428741455,4.544832706451416,-3.7608284950256348,0.9560261964797974,-1.136832594871521
1781547260162933,109709309,-0.6332401633262634,0.35870832204818726,-0.3867122530937195,0.5663821697235107,-0.9649982452392578,-8.60997200012207,4.527830123901367,-3.553365468978882,0.6934830546379089,-1.3620450496673584
1781547260189681,109725976,-0.633277952671051,0.35868826508522034,-0.3866741955280304,0.5663787722587585,-0.9700186848640442,-8.600820541381836,4.567914962768555,-3.292717695236206,0.5444684028625488,-1.2583776712417603
1781547260219634,109742643,-0.633314311504364,0.3586762547492981,-0.38661134243011475,0.5663886666297913,-0.9786405563354492,-8.578734397888184,4.56580924987793,-3.2003836631774902,0.4404551684856415,-1.403972864151001
1781547260223164,109759310,-0.6332904696464539,0.3586741089820862,-0.38658177852630615,0.5664368271827698,-0.9630741477012634,-8.610689163208008,4.564761638641357,-3.4203970432281494,0.801543116569519,-1.749667763710022
1781547260249341,109775977,-0.6332839131355286,0.35865575075149536,-0.3865966796875,0.566445529460907,-0.956614077091217,-8.59054183959961,4.580804824829102,-3.585944890975952,0.9147000312805176,-1.358151912689209
1781547260252932,109792644,-0.6332887411117554,0.358635812997818,-0.386638879776001,0.5664239525794983,-0.9688665866851807,-8.617520332336426,4.5599164962768555,-3.738750457763672,0.9351774454116821,-1.1112840175628662
1781547260279276,109809311,-0.6332858800888062,0.3586134612560272,-0.3866550922393799,0.5664302706718445,-0.9834953546524048,-8.59921646118164,4.570406913757324,-3.5725882053375244,0.9195153117179871,-1.3199635744094849
1781547260281388,109825978,-0.6332434415817261,0.3586242198944092,-0.38663867115974426,0.5664820671081543,-0.9891147017478943,-8.58635139465332,4.5690717697143555,-3.566593885421753,0.8669066429138184,-1.8413994312286377
1781547260309892,109842645,-0.6331817507743835,0.35862767696380615,-0.38662201166152954,0.5665602087974548,-0.9619710445404053,-8.592239379882812,4.550236701965332,-3.5128326416015625,1.0099278688430786,-2.0119926929473877
1781547260311653,109859312,-0.6330918073654175,0.3586603105068207,-0.3865989148616791,0.5666558146476746,-0.9627931118011475,-8.598286628723145,4.574599266052246,-3.637874126434326,0.9867228865623474,-2.2929768562316895
1781547260340845,109875979,-0.6329741477966309,0.3586772382259369,-0.38662153482437134,0.5667612552642822,-0.9740689396858215,-8.595257759094238,4.56571626663208,-3.790680408477783,1.3437896966934204,-2.289494037628174
1781547260369354,109892646,-0.6328291893005371,0.35867273807525635,-0.3866407573223114,0.5669128894805908,-0.9786229729652405,-8.579627990722656,4.573428630828857,-3.6298320293426514,1.5986871719360352,-2.548182249069214
1781547260371264,109909313,-0.6325761675834656,0.35871025919914246,-0.3866986632347107,0.5671318769454956,-0.9811569452285767,-8.585772514343262,4.583831787109375,-4.050994396209717,2.057103395462036,-3.2791810035705566
1781547260399421,109925980,-0.632223904132843,0.358752578496933,-0.3867959678173065,0.5674315094947815,-0.9596654772758484,-8.600678443908691,4.579809188842773,-4.257112979888916,2.6727817058563232,-3.9334967136383057
1781547260401499,109942647,-0.6318771243095398,0.3587769865989685,-0.3869430720806122,0.5677019953727722,-0.9385656118392944,-8.632442474365234,4.553649425506592,-4.437772750854492,2.872138261795044,-3.6154513359069824
1781547260429255,109959314,-0.6316038370132446,0.3587596118450165,-0.38714590668678284,0.5678788423538208,-0.8884735703468323,-8.6640625,4.496219635009766,-4.542143821716309,2.850687265396118,-2.673043966293335
1781547260431270,109975981,-0.6315422058105469,0.35866066813468933,-0.3872314393520355,0.5679514408111572,-0.9526371359825134,-8.609755516052246,4.499147891998291,-3.4859142303466797,1.8383451700210571,-1.466442346572876
1781547260459230,109992648,-0.6314660310745239,0.35859715938568115,-0.3871917426586151,0.5681033730506897,-1.055249571800232,-8.565313339233398,4.575603485107422,-2.975863218307495,1.3909811973571777,-2.2716164588928223
1781547260462441,110009315,-0.6311227083206177,0.35869210958480835,-0.38703688979148865,0.5685303807258606,-1.1622107028961182,-8.54730224609375,4.66642427444458,-3.1410651206970215,1.6608364582061768,-5.216180324554443
1781547260489518,110025982,-0.6302415728569031,0.3592124283313751,-0.3868288993835449,0.5693203806877136,-1.0511329174041748,-8.532573699951172,4.785337448120117,-5.1405229568481445,2.0936152935028076,-10.158053398132324
1781547260519685,110042649,-0.6290180683135986,0.3596128821372986,-0.3865521550178528,0.57060706615448,-0.7791966795921326,-8.655282974243164,4.421467304229736,-3.878021478652954,4.401872634887695,-13.502409934997559
1781547260521432,110059316,-0.6284401416778564,0.3599359095096588,-0.385909765958786,0.5714743733406067,-0.659772515296936,-8.673287391662598,4.356786727905273,-1.6270471811294556,0.37071192264556885,-9.853759765625
1781547260549893,110075983,-0.6285380721092224,0.36019590497016907,-0.3850998878479004,0.571749210357666,-0.7097786068916321,-8.658787727355957,4.489511013031006,-0.5960589051246643,-3.3647024631500244,-4.8848419189453125
1781547260552748,110092650,-0.6288453936576843,0.36023643612861633,-0.38462433218955994,0.5717057585716248,-0.8589954376220703,-8.674798965454102,4.557777404785156,-1.2866027355194092,-2.4000251293182373,-1.276203989982605
1781547260579871,110109317,-0.6290618181228638,0.3600274622440338,-0.3846438229084015,0.571586012840271,-0.9233894348144531,-8.616156578063965,4.613605976104736,-2.580876350402832,0.7715889811515808,0.5823239684104919
1781547260581790,110125984,-0.6289816498756409,0.35972073674201965,-0.38515505194664,0.5715233087539673,-0.8792647123336792,-8.576719284057617,4.7291035652160645,-4.6748433113098145,4.2087883949279785,0.6445373296737671
1781547260609425,110142651,-0.6283678412437439,0.3593304455280304,-0.38626131415367126,0.5716973543167114,-0.5747029781341553,-8.642178535461426,4.576021194458008,-7.345289707183838,9.108962059020996,-0.7833006978034973
1781547260612452,110159318,-0.6282821893692017,0.3584548234939575,-0.38773518800735474,0.5713433027267456,-0.6070804595947266,-8.74328899383545,4.473673343658447,-6.79162073135376,9.897988319396973,5.771921157836914
1781547260639460,110175985,-0.6290041208267212,0.3576105237007141,-0.3893587589263916,0.5699721574783325,-0.7498499751091003,-8.709765434265137,4.512997627258301,-8.236053466796875,5.763369083404541,13.622800827026367
1781547260669286,110192652,-0.6298890709877014,0.35660597681999207,-0.3909551799297333,0.5685299038887024,-1.1212646961212158,-8.610239028930664,4.409852504730225,-7.226503372192383,5.663249492645264,14.93117618560791
1781547260670719,110209319,-0.6304903030395508,0.3554322123527527,-0.3921390473842621,0.5677826404571533,-1.2975432872772217,-8.56362247467041,4.380321502685547,-3.7087979316711426,7.005058765411377,10.255081176757812
1781547260699236,110225986,-0.6305639743804932,0.3542594015598297,-0.39270076155662537,0.5680454969406128,-1.3062903881072998,-8.509248733520508,4.47554349899292,0.15003283321857452,8.195432662963867,2.2917802333831787
1781547260701654,110242653,-0.6300455927848816,0.3531767725944519,-0.39298680424690247,0.569096028804779,-1.212998867034912,-8.50863265991211,4.618993282318115,1.5198131799697876,10.163922309875488,-4.350804805755615
1781547260729981,110259320,-0.6290181279182434,0.35213351249694824,-0.39338457584381104,0.570602297782898,-1.01290762424469,-8.532477378845215,4.78278112411499,0.9070682525634766,12.975090026855469,-8.154155731201172
1781547260730871,110275987,-0.6279916763305664,0.35129228234291077,-0.39397743344306946,0.5718408823013306,-0.8943421244621277,-8.596189498901367,4.77301025390625,-1.4549560546875,12.375738143920898,-7.066689968109131
1781547260759263,110292654,-0.6274154782295227,0.3507145643234253,-0.3947950005531311,0.5722640752792358,-0.885313093662262,-8.680830955505371,4.5119948387146,-4.5981855392456055,9.120922088623047,-1.947077989578247
1781547260761213,110309321,-0.6272475719451904,0.34998980164527893,-0.3957509696483612,0.5722314715385437,-1.003389596939087,-8.704325675964355,4.3307108879089355,-4.760934829711914,8.08967113494873,2.3587253093719482
1781547260789519,110325988,-0.627342939376831,0.3489249646663666,-0.3965342342853546,0.5722349286079407,-1.142478585243225,-8.659358024597168,4.2371978759765625,-1.8831489086151123,8.053000450134277,3.747824192047119
1781547260819664,110342655,-0.6275056004524231,0.3476415276527405,-0.3969203233718872,0.5725700855255127,-1.1836274862289429,-8.543509483337402,4.394526481628418,1.6889209747314453,7.811805248260498,2.2259554862976074
1781547260821611,110359322,-0.6274735927581787,0.3463822603225708,-0.3970329761505127,0.5732899308204651,-1.1955691576004028,-8.454319953918457,4.6827712059021,3.2458150386810303,7.986995220184326,-0.9199444055557251
1781547260849734,110375989,-0.6270627975463867,0.3454616069793701,-0.3971237540245056,0.5742312669754028,-1.1892019510269165,-8.493112564086914,4.824052810668945,1.5726521015167236,8.119836807250977,-4.346642971038818
1781547260851860,110392656,-0.6263213157653809,0.3448415994644165,-0.3972385823726654,0.5753325819969177,-1.1148042678833008,-8.523365020751953,4.749431133270264,-0.16804496943950653,8.31937313079834,-7.106425762176514
1781547260880005,110409323,-0.6255773305892944,0.3444465696811676,-0.3974006474018097,0.5762660503387451,-1.024102807044983,-8.716910362243652,4.4291462898254395,-1.7889899015426636,7.241390705108643,-6.89572811126709
1781547260881744,110425990,-0.6252232789993286,0.34372270107269287,-0.3974579870700836,0.5770422220230103,-1.1156694889068604,-8.6497802734375,4.45148229598999,0.5344282388687134,6.655928611755371,-4.0247931480407715
1781547260909346,110442657,-0.625031054019928,0.34279415011405945,-0.3971296548843384,0.57802814245224,-1.1310389041900635,-8.482904434204102,4.574380397796631,3.9000909328460693,5.862306118011475,-4.63657808303833
1781547260911690,110459324,-0.6248452663421631,0.34189191460609436,-0.3960490822792053,0.5795028805732727,-1.2669780254364014,-8.327730178833008,4.828042984008789,8.126753807067871,3.65932035446167,-8.55710506439209
1781547260939904,110475991,-0.6240589022636414,0.3413722515106201,-0.3946680724620819,0.5815949440002441,-1.303096890449524,-8.504256248474121,5.015071392059326,7.947432518005371,3.930446147918701,-15.35116958618164
1781547260969327,110492658,-0.6226131319999695,0.3410471975803375,-0.39443647861480713,0.5834891200065613,-1.3816747665405273,-8.65346908569336,5.169524669647217,0.4304923415184021,9.406946182250977,-14.970101356506348
1781547260971964,110509325,-0.6207765936851501,0.340203195810318,-0.3946283161640167,0.5858045816421509,-1.1030147075653076,-8.476712226867676,4.894503593444824,1.1782310009002686,15.348123550415039,-15.942691802978516
1781547260999280,110525992,-0.6185414791107178,0.34015271067619324,-0.3940398693084717,0.5885875225067139,-1.1484301090240479,-8.379219055175781,4.511677265167236,1.2690801620483398,10.995319366455078,-23.519798278808594
1781547261001590,110542659,-0.616067111492157,0.3401007354259491,-0.39290881156921387,0.5919589996337891,-1.1765998601913452,-8.478466987609863,4.423941612243652,4.507318019866943,10.716419219970703,-28.259220123291016
1781547261029333,110559326,-0.6142605543136597,0.3387090265750885,-0.3922559916973114,0.5950592756271362,-1.2636221647262573,-8.473639488220215,4.525640487670898,9.065247535705566,15.755057334899902,-19.656145095825195
1781547261031466,110575993,-0.6122598052024841,0.3361912667751312,-0.39262375235557556,0.5982977151870728,-0.7229139804840088,-8.902796745300293,4.979216575622559,9.567059516906738,25.515193939208984,-15.623029708862305
1781547261060043,110592660,-0.6113283038139343,0.33321407437324524,-0.39264461398124695,0.600896418094635,-0.654570996761322,-8.895990371704102,5.37985372543335,13.672844886779785,21.57952880859375,-8.09326171875
1781547261062306,110609327,-0.6097153425216675,0.3322499990463257,-0.39190638065338135,0.6035449504852295,-1.257665991783142,-8.496627807617188,5.3600006103515625,6.920353412628174,12.02525520324707,-18.29119110107422
1781547261089566,110625994,-0.6070246696472168,0.33181849122047424,-0.39046910405158997,0.6074137091636658,-1.7206273078918457,-8.253498077392578,5.257439136505127,8.413225173950195,12.57429313659668,-30.912185668945312
1781547261119416,110642661,-0.6029629707336426,0.3299580514431,-0.3914617598056793,0.6118178963661194,-2.182002305984497,-7.957254409790039,5.674877166748047,2.537743330001831,33.58248519897461,-29.497329711914062
1781547261121604,110659328,-0.5994470119476318,0.32694777846336365,-0.39497801661491394,0.6146226525306702,-3.1773602962493896,-8.125202178955078,6.819220066070557,-6.380465030670166,43.78005599975586,-11.757315635681152
1781547261149569,110675995,-0.5979145169258118,0.3231956362724304,-0.400270938873291,0.614675760269165,-4.774746417999268,-9.24610710144043,7.849902629852295,-13.850699424743652,42.66200256347656,13.963313102722168
1781547261153630,110692662,-0.5948610901832581,0.3233402371406555,-0.4048178791999817,0.6145842671394348,-5.217988014221191,-9.992051124572754,7.974338531494141,-30.502412796020508,26.986732482910156,-4.2670111656188965
1781547261179296,110709329,-0.5871219038963318,0.32774439454078674,-0.4071853458881378,0.618119478225708,-5.568479537963867,-9.604146003723145,7.3632354736328125,-39.04401397705078,21.171802520751953,-55.617610931396484
1781547261181789,110725996,-0.5761836171150208,0.3309823274612427,-0.4103831350803375,0.6245390176773071,-5.6345319747924805,-8.802408218383789,6.4063401222229,-37.003971099853516,44.92750930786133,-75.73942565917969
1781547261209337,110742663,-0.5642116069793701,0.3288259208202362,-0.41694217920303345,0.6322166919708252,-5.422579288482666,-8.066280364990234,6.262579441070557,-28.870079040527344,87.17871856689453,-62.315093994140625
1781547261211491,110759330,-0.5525354743003845,0.32103973627090454,-0.42611628770828247,0.6403617858886719,-4.80510139465332,-7.652815341949463,6.21055793762207,-16.387451171875,121.99596405029297,-40.81372833251953
1781547261240179,110775997,-0.5400157570838928,0.3102475106716156,-0.43660348653793335,0.6492357850074768,-3.6802990436553955,-7.1749587059021,5.175437927246094,-10.473198890686035,144.29522705078125,-35.613136291503906
1781547261269563,110792664,-0.5255195498466492,0.298562616109848,-0.44613897800445557,0.660037636756897,-2.3552663326263428,-6.542782783508301,3.997745990753174,-1.330665946006775,154.7884979248047,-50.96516799926758
1781547261271755,110809331,-0.5096501708030701,0.2852649688720703,-0.45340538024902344,0.67327880859375,-1.7374005317687988,-6.007116794586182,3.7890446186065674,19.472415924072266,163.12582397460938,-65.73686981201172
1781547261299517,110825998,-0.4946867525577545,0.2680908143520355,-0.45876288414001465,0.6877129077911377,-1.663554310798645,-6.022441387176514,4.218957901000977,47.405357360839844,173.8933563232422,-57.392093658447266
1781547261301510,110842665,-0.479965478181839,0.24637749791145325,-0.46343305706977844,0.7029659748077393,-1.518251895904541,-6.584395408630371,4.787105083465576,69.14218139648438,193.76345825195312,-45.98969268798828
1781547261331566,110859332,-0.4645591378211975,0.22300985455513,-0.46823617815971375,0.7177788019180298,-0.49694639444351196,-6.491801738739014,4.261282920837402,71.41270446777344,203.6316680908203,-42.35844802856445
1781547261332746,110875999,-0.44979897141456604,0.1985068917274475,-0.473169207572937,0.7310178279876709,-0.2151765525341034,-6.426605701446533,4.012884616851807,70.33921813964844,205.14801025390625,-30.287296295166016
1781547261359331,110892666,-0.437613844871521,0.1738203912973404,-0.4782183766365051,0.7413419485092163,-0.08163534104824066,-6.1392598152160645,3.6245367527008057,64.36946868896484,194.06338500976562,-7.569106578826904
1781547261361465,110909333,-0.42937004566192627,0.1488979160785675,-0.4820477068424225,0.7490668296813965,-0.28954747319221497,-6.005316734313965,3.749558448791504,67.47557067871094,175.52084350585938,19.66541862487793
1781547261390089,110926000,-0.42293041944503784,0.12497078627347946,-0.483802855014801,0.7559413313865662,-0.5220981240272522,-6.504641056060791,4.418139934539795,74.26054382324219,157.41311645507812,26.051307678222656
1781547261419731,110942667,-0.41589605808258057,0.10258802771568298,-0.4836300313472748,0.7632879018783569,-0.7310093641281128,-7.2159342765808105,4.937273025512695,80.86004638671875,146.1575164794922,14.799003601074219
1781547261421732,110959334,-0.4062308967113495,0.0820389911532402,-0.4834097921848297,0.7710778713226318,-0.5122672319412231,-8.240228652954102,6.005223274230957,75.49441528320312,145.45530700683594,-6.400503635406494
1781547261449373,110976001,-0.3963835835456848,0.06450881063938141,-0.48770394921302795,0.7751539945602417,-0.28058454394340515,-8.685992240905762,5.9717936515808105,30.687875747680664,140.56832885742188,-4.470613479614258
1781547261451694,110992668,-0.3920940160751343,0.046890564262866974,-0.49591049551963806,0.7733928561210632,-0.39970511198043823,-8.382650375366211,5.348511695861816,-7.025186061859131,130.47906494140625,43.100521087646484
1781547261479923,111009335,-0.3942519426345825,0.02779819443821907,-0.5051135420799255,0.7672374248504639,-1.2223646640777588,-8.076793670654297,4.693615913391113,-21.248844146728516,117.61280059814453,94.59121704101562
1781547261481568,111026002,-0.3989609479904175,0.007949682883918285,-0.5134222507476807,0.7597136497497559,-2.4020767211914062,-8.138967514038086,4.38023567199707,-18.7412052154541,110.0616455078125,114.22177124023438
1781547261509612,111042669,-0.40249741077423096,-0.01240329910069704,-0.5211377143859863,0.7525008916854858,-3.8383381366729736,-8.039210319519043,4.7148542404174805,-13.219895362854004,115.22925567626953,108.9971923828125
1781547261511550,111059336,-0.4031652510166168,-0.0350164957344532,-0.5300888419151306,0.7451426386833191,-4.844664096832275,-8.25851058959961,4.2144317626953125,-13.629697799682617,140.639892578125,102.554443359375
1781547261539713,111076003,-0.4006121754646301,-0.06164100393652916,-0.5398136377334595,0.7377746105194092,-4.903812885284424,-7.950028419494629,3.5350356101989746,-5.72524881362915,175.08544921875,100.51795196533203
1781547261569447,111092670,-0.3959480822086334,-0.09086815267801285,-0.5476832389831543,0.731444776058197,-4.520623207092285,-7.536182880401611,3.329409599304199,15.616758346557617,190.576904296875,97.40153503417969
1781547261571983,111109337,-0.3895179331302643,-0.11928175389766693,-0.5509636998176575,0.7283452749252319,-4.220633506774902,-7.195947647094727,3.7825815677642822,49.76290512084961,178.6162109375,79.53343963623047
1781547261599851,111126004,-0.3819883465766907,-0.14323750138282776,-0.5499935150146484,0.7287489771842957,-4.367190361022949,-7.068770408630371,4.000524044036865,73.28938293457031,146.1893768310547,51.24905776977539
1781547261601872,111142671,-0.3714181184768677,-0.16516491770744324,-0.5470470786094666,0.7317847013473511,-5.187011241912842,-6.8766093254089355,3.8542308807373047,90.81942749023438,139.73965454101562,23.386837005615234
1781547261629626,111159338,-0.3572981655597687,-0.19022545218467712,-0.5441873669624329,0.7348554134368896,-5.2959136962890625,-6.294608116149902,4.031093597412109,102.55926513671875,169.0419921875,17.134489059448242
1781547261631942,111176005,-0.34430253505706787,-0.21854136884212494,-0.543704628944397,0.7335399389266968,-4.331172943115234,-5.664951801300049,5.675133228302002,80.670654296875,192.86302185058594,42.67671203613281
1781547261660477,111192672,-0.33418968319892883,-0.24777543544769287,-0.542757511138916,0.7296156287193298,-4.634073257446289,-6.272343635559082,4.368988990783691,71.10071563720703,189.5436553955078,67.53731536865234
1781547261662082,111209339,-0.3273138999938965,-0.2748192250728607,-0.5364661812782288,0.7276979088783264,-5.285254955291748,-6.217355251312256,4.697762489318848,94.85311126708984,150.77102661132812,80.10891723632812
1781547261689528,111226006,-0.32343730330467224,-0.2941879332065582,-0.525451123714447,0.7298924326896667,-6.36539888381958,-5.631830215454102,5.026629447937012,110.70782470703125,82.89695739746094,66.4848403930664
1781547261719359,111242673,-0.3101505637168884,-0.3172876834869385,-0.5194052457809448,0.7303105592727661,-7.2214837074279785,-5.140995979309082,5.78033447265625,106.68648529052734,150.2738037109375,26.647668838500977
1781547261721705,111259340,-0.29746583104133606,-0.33533936738967896,-0.5160241723060608,0.7299183011054993,-9.645955085754395,-5.880153656005859,4.992488861083984,78.3245849609375,130.22555541992188,7.561415672302246
1781547261749444,111276007,-0.2871617376804352,-0.354717493057251,-0.5172873735427856,0.7239664793014526,-9.909543991088867,-5.993276596069336,4.6384735107421875,32.51278305053711,150.75941467285156,24.880762100219727
1781547261751901,111292674,-0.28453293442726135,-0.3724888265132904,-0.5182400941848755,0.7153463363647461,-9.31015396118164,-5.6640143394470215,3.9299938678741455,2.6727914810180664,121.35821533203125,63.3984260559082
1781547261779499,111309341,-0.28401222825050354,-0.38922467827796936,-0.5132424831390381,0.7102277874946594,-8.681417465209961,-4.844482898712158,3.304456949234009,36.99044418334961,88.14700317382812,78.46734619140625
1781547261781228,111326008,-0.28600218892097473,-0.40054190158843994,-0.504462718963623,0.7094268798828125,-8.570756912231445,-4.470424652099609,3.354752779006958,53.389122009277344,33.88679122924805,73.29646301269531
1781547261809993,111342675,-0.28907763957977295,-0.4053296148777008,-0.4932197034358978,0.7133557796478271,-8.739380836486816,-4.582920551300049,3.0039443969726562,65.97489166259766,-19.592853546142578,53.42692184448242
1781547261811841,111359342,-0.2931695282459259,-0.4062865674495697,-0.4831969738006592,0.7179858088493347,-9.16633129119873,-4.766622543334961,3.004270076751709,51.91442108154297,-41.35596466064453,40.62849807739258
1781547261840316,111376009,-0.2963612377643585,-0.409587025642395,-0.47401612997055054,0.7209141850471497,-9.333227157592773,-4.912090301513672,2.6186530590057373,49.3385009765625,-20.345401763916016,45.05001449584961
1781547261869838,111392676,-0.2986067831516266,-0.4168563485145569,-0.4685964286327362,0.7193624377250671,-8.636552810668945,-4.921760559082031,2.960381031036377,26.844087600708008,22.690994262695312,51.834285736083984
1781547261871397,111409343,-0.29672229290008545,-0.433004230260849,-0.4629058837890625,0.7142699360847473,-8.504607200622559,-4.782623767852783,2.701836347579956,46.841644287109375,89.50640869140625,68.06521606445312
1781547261899750,111426010,-0.29533252120018005,-0.4462208151817322,-0.46042096614837646,0.708292543888092,-8.873173713684082,-4.517533302307129,3.331695079803467,20.828819274902344,82.71025085449219,53.431034088134766
1781547261901409,111442677,-0.2941405475139618,-0.45472288131713867,-0.4596332311630249,0.7038792967796326,-8.651511192321777,-4.653321743011475,3.1160736083984375,7.333291530609131,57.77626419067383,31.08966827392578
1781547261929357,111459344,-0.292550265789032,-0.45916223526000977,-0.46028944849967957,0.7012261748313904,-9.071688652038574,-4.506004333496094,3.036334991455078,-1.0639184713363647,36.796058654785156,8.25335693359375
1781547261932835,111476011,-0.29069939255714417,-0.46291303634643555,-0.46149325370788574,0.6987342238426208,-8.981399536132812,-4.285160541534424,2.650007963180542,-3.7563748359680176,34.899436950683594,2.76839280128479
1781547261959462,111492678,-0.2897195816040039,-0.4666789472103119,-0.463001549243927,0.6956313252449036,-9.091835021972656,-4.203441619873047,2.5246496200561523,-9.900994300842285,34.7657470703125,7.255670547485352
1781547261961242,111509345,-0.2898438274860382,-0.46965304017066956,-0.46459534764289856,0.692508339881897,-9.146842002868652,-4.030818939208984,2.455932140350342,-15.495166778564453,27.703475952148438,9.783493995666504
1781547261989710,111526012,-0.29065778851509094,-0.47071683406829834,-0.46596983075141907,0.6905185580253601,-9.435362815856934,-3.961298704147339,2.2435004711151123,-16.86672019958496,12.313523292541504,5.416370868682861
1781547262019449,111542679,-0.2904694080352783,-0.4702497124671936,-0.46630364656448364,0.6906907558441162,-9.788030624389648,-3.6979992389678955,2.022266387939453,-4.8155341148376465,-0.8154700994491577,-5.198853492736816
1781547262021301,111559346,-0.29130667448043823,-0.4686970114707947,-0.46816879510879517,0.6901317238807678,-9.4380521774292,-3.960744619369507,2.0111584663391113,-19.917299270629883,-3.832639455795288,-7.299324035644531
1781547262049523,111576013,-0.29324987530708313,-0.46709439158439636,-0.4702375829219818,0.688987672328949,-9.549260139465332,-3.753648519515991,1.828487753868103,-26.431663513183594,-5.3323974609375,-1.6970375776290894
1781547262051345,111592680,-0.2957169711589813,-0.46584922075271606,-0.472978800535202,0.6868966817855835,-9.43935489654541,-3.5819618701934814,1.5711578130722046,-33.640350341796875,-0.9336634874343872,1.6891578435897827
1781547262079383,111609347,-0.29813921451568604,-0.46540355682373047,-0.47618773579597473,0.6839281320571899,-9.222127914428711,-3.500439405441284,1.368054986000061,-36.936424255371094,6.751931667327881,4.361730098724365
1781547262081097,111626014,-0.3007151782512665,-0.46558302640914917,-0.47998058795928955,0.6800158619880676,-9.254002571105957,-3.2046101093292236,1.3518214225769043,-41.982452392578125,13.407234191894531,7.196430683135986
1781547262109413,111642681,-0.30377593636512756,-0.4653332233428955,-0.4836881756782532,0.6761886477470398,-9.276144981384277,-3.001413583755493,1.293380856513977,-43.74290466308594,9.3543062210083,8.140908241271973
1781547262112498,111659348,-0.30713269114494324,-0.4634624719619751,-0.48732689023017883,0.6733383536338806,-9.329568862915039,-2.986640453338623,1.1708699464797974,-44.50690841674805,-2.4328646659851074,2.3030779361724854
1781547262139556,111676015,-0.3092503249645233,-0.46160009503364563,-0.49070101976394653,0.6711946129798889,-9.23926830291748,-3.1230454444885254,0.9986118674278259,-36.949459075927734,-1.0505355596542358,-4.0573530197143555
1781547262199288,111692682,-0.310135155916214,-0.4611835777759552,-0.4938618838787079,0.6687499284744263,-9.006102561950684,-3.2720415592193604,0.8448734879493713,-29.994308471679688,10.28437328338623,-3.5543766021728516
1781547262201015,111709349,-0.3096100389957428,-0.4628535211086273,-0.49591246247291565,0.6663177609443665,-8.76938247680664,-3.3124611377716064,0.9274977445602417,-15.92668342590332,22.258808135986328,0.5399747490882874
1781547262203365,111726016,-0.30822110176086426,-0.46523013710975647,-0.49635550379753113,0.6649751663208008,-8.719924926757812,-3.3154773712158203,0.9539085626602173,-0.5936265587806702,21.552820205688477,1.7873915433883667
1781547262229913,111742683,-0.30503106117248535,-0.46836790442466736,-0.4949359893798828,0.6653014421463013,-8.653295516967773,-3.328658103942871,0.9485946893692017,20.99126625061035,21.894807815551758,-1.4286296367645264
1781547262231426,111759350,-0.30182957649230957,-0.4699956774711609,-0.4925321638584137,0.6673943996429443,-8.881413459777832,-3.485456943511963,1.116698980331421,28.376035690307617,7.2741899490356445,-7.154200553894043
1781547262236535,111776017,-0.298994779586792,-0.4700721502304077,-0.49007123708724976,0.6704211831092834,-8.974250793457031,-3.591782808303833,1.0651211738586426,27.394710540771484,-4.2213454246521,-12.477511405944824
1781547262259442,111792684,-0.29666781425476074,-0.4700143039226532,-0.4876190423965454,0.6732774376869202,-9.115131378173828,-3.8644728660583496,1.0246293544769287,24.86235809326172,-5.982770919799805,-10.266955375671387
1781547262261438,111809351,-0.29536172747612,-0.470905601978302,-0.4858703017234802,0.6744920611381531,-9.152562141418457,-3.986804723739624,1.063897967338562,14.738819122314453,1.7279813289642334,-1.2825440168380737
1781547262289743,111826018,-0.2954883277416229,-0.4726008176803589,-0.48506200313568115,0.6738324165344238,-9.193068504333496,-3.918154716491699,1.1581975221633911,1.1102536916732788,8.649332046508789,8.809666633605957
1781547262319456,111842685,-0.2966056764125824,-0.47377532720565796,-0.48466750979423523,0.672799825668335,-9.190848350524902,-3.7568798065185547,1.0356817245483398,-6.327249526977539,4.986750602722168,11.077325820922852
1781547262321322,111859352,-0.29807108640670776,-0.47433117032051086,-0.48414137959480286,0.672139048576355,-9.265195846557617,-3.7094740867614746,0.9864276647567749,-6.8756303787231445,-0.513445258140564,10.29673957824707
1781547262349884,111876019,-0.299629807472229,-0.47425392270088196,-0.48347774147987366,0.6719780564308167,-9.378890991210938,-3.7279815673828125,1.0194885730743408,-6.179219722747803,-5.6592817306518555,8.045380592346191
1781547262351357,111892686,-0.3010506331920624,-0.4739111363887787,-0.48286187648773193,0.6720278263092041,-9.325746536254883,-3.739182710647583,1.0685230493545532,-5.797706127166748,-7.014707088470459,5.935470104217529
1781547262379650,111909353,-0.3024013638496399,-0.4738195538520813,-0.48260581493377686,0.6716696619987488,-9.211134910583496,-3.7213683128356934,1.1480807065963745,-8.066019058227539,-3.5477962493896484,6.118639945983887
1781547262381053,111926020,-0.30403387546539307,-0.47402894496917725,-0.482681542634964,0.67072993516922,-9.074535369873047,-3.6161515712738037,1.196516513824463,-11.821050643920898,-0.5067859888076782,8.54732894897461
1781547262409660,111942687,-0.30549752712249756,-0.47402599453926086,-0.48236119747161865,0.6702972054481506,-8.88400936126709,-3.518389940261841,1.2369848489761353,-8.206274032592773,-3.4047491550445557,7.295198917388916
