host_t_us,sensor_t_us,qw,qx,qy,qz,ax,ay,az,gx,gy,gz
1781544003540122,99633220,0.6961753964424133,-0.004589608870446682,0.021059608086943626,-0.7175480723381042,-0.22033371031284332,-0.34714242815971375,9.733287811279297,0.7232705950737,0.10937263071537018,0.0848100557923317
1781544003541865,99649887,0.6961744427680969,-0.004586868919432163,0.021071163937449455,-0.7175487279891968,-0.21440427005290985,-0.3518450856208801,9.705689430236816,0.6560757160186768,0.17533814907073975,0.10503127425909042
1781544003570131,99666554,0.6961687803268433,-0.00459120562300086,0.02106521464884281,-0.7175543308258057,-0.21917852759361267,-0.35710570216178894,9.705378532409668,0.7090939879417419,0.0574813038110733,0.05690501630306244
1781544003572044,99683221,0.696169912815094,-0.0045882342383265495,0.02107762172818184,-0.717552900314331,-0.21437227725982666,-0.35592207312583923,9.714095115661621,0.6527204513549805,0.18024298548698425,0.1257135421037674
1781544003600342,99699888,0.6961688995361328,-0.0045941490679979324,0.021083632484078407,-0.7175536751747131,-0.2378176897764206,-0.34907713532447815,9.708564758300781,0.6419886350631714,0.1061326190829277,0.1027645468711853
1781544003630117,99716555,0.6961715817451477,-0.004591934382915497,0.021073032170534134,-0.7175514101982117,-0.209351047873497,-0.35153040289878845,9.725991249084473,0.762509286403656,0.0660487487912178,0.13617631793022156
1781544003631854,99733222,0.6961806416511536,-0.004592691548168659,0.02108229324221611,-0.717542290687561,-0.20834268629550934,-0.3685138523578644,9.712864875793457,0.649480402469635,0.14533285796642303,0.20051541924476624
1781544003660128,99749889,0.6961773037910461,-0.004591512493789196,0.021083714440464973,-0.7175454497337341,-0.21520185470581055,-0.36308160424232483,9.696764945983887,0.6988616585731506,0.11955367028713226,0.0807248130440712
1781544003661863,99766556,0.6961724758148193,-0.004581045359373093,0.02107512578368187,-0.7175505757331848,-0.20927608013153076,-0.352624773979187,9.708512306213379,0.7929370999336243,0.1177607998251915,0.06501143425703049
1781544003690128,99783223,0.6961637735366821,-0.004593532532453537,0.021083194762468338,-0.7175586819648743,-0.21437932550907135,-0.34720680117607117,9.71278190612793,0.6011876463890076,0.08491250872612,0.02888472005724907
1781544003691869,99799890,0.6961692571640015,-0.004598020110279322,0.021080678328871727,-0.7175534963607788,-0.21892841160297394,-0.36177632212638855,9.718172073364258,0.6901918053627014,0.07126092910766602,0.16318491101264954
1781544003720131,99816557,0.6961696743965149,-0.004598101135343313,0.021081922575831413,-0.7175529599189758,-0.22523657977581024,-0.35820716619491577,9.704009056091309,0.693239688873291,0.11185705661773682,0.11681310832500458
1781544003721863,99833224,0.6961736679077148,-0.004595614969730377,0.021089300513267517,-0.7175489068031311,-0.22766493260860443,-0.3489663004875183,9.700333595275879,0.6748754382133484,0.1532599925994873,0.15204337239265442
1781544003750353,99849891,0.696171224117279,-0.004590334836393595,0.02109016478061676,-0.7175511717796326,-0.21195822954177856,-0.3510405123233795,9.713522911071777,0.7210678458213806,0.13697031140327454,0.09003503620624542
1781544003780124,99866558,0.6961813569068909,-0.004594618920236826,0.02109033241868019,-0.7175414562225342,-0.2134566605091095,-0.3541196286678314,9.74064826965332,0.6773726940155029,0.08428499102592468,0.20814800262451172
1781544003781890,99883225,0.6961880922317505,-0.004595926497131586,0.021097974851727486,-0.7175347208976746,-0.21902498602867126,-0.3569663465023041,9.726293563842773,0.6550768613815308,0.13531829416751862,0.17768168449401855
1781544003810130,99899892,0.6961990594863892,-0.004604016430675983,0.02110864222049713,-0.7175235152244568,-0.22804757952690125,-0.36773425340652466,9.713582992553711,0.6071553826332092,0.11558370292186737,0.21912303566932678
1781544003811853,99916559,0.6962030529975891,-0.0046118940226733685,0.021113509312272072,-0.7175195813179016,-0.23231400549411774,-0.36002036929130554,9.713508605957031,0.6376345753669739,0.0901118814945221,0.14990472793579102
1781544003840122,99933226,0.6962035298347473,-0.00460820971056819,0.021107686683535576,-0.7175192832946777,-0.2151697874069214,-0.36826714873313904,9.699204444885254,0.7461427450180054,0.09655345976352692,0.11623682826757431
1781544003841870,99949893,0.6962076425552368,-0.004615133628249168,0.02110496535897255,-0.7175152897834778,-0.22404581308364868,-0.35146966576576233,9.723557472229004,0.6796777844429016,0.058428965508937836,0.15026330947875977
1781544003870122,99966560,0.6962113976478577,-0.004599372856318951,0.02110249735414982,-0.7175118923187256,-0.21198342740535736,-0.3590870201587677,9.71492862701416,0.7870334386825562,0.1716243028640747,0.14894425868988037
1781544003871873,99983227,0.6962096691131592,-0.0045978291891515255,0.021102214232087135,-0.7175136208534241,-0.2312697470188141,-0.36901453137397766,9.721057891845703,0.70878666639328,0.11289438605308533,0.09572106599807739
1781544003900356,99999894,0.6962090134620667,-0.00460096774622798,0.021097296848893166,-0.7175144553184509,-0.23699167370796204,-0.3562009632587433,9.71126937866211,0.7091708183288574,0.06740622222423553,0.10463427752256393
1781544003930121,100016561,0.6962102651596069,-0.004593930207192898,0.021090028807520866,-0.717513382434845,-0.22809407114982605,-0.34085190296173096,9.714792251586914,0.769245445728302,0.10599175095558167,0.12415114790201187
1781544003931829,100033228,0.6962108016014099,-0.0046081095933914185,0.021080730482935905,-0.7175130844116211,-0.22241505980491638,-0.34028685092926025,9.721890449523926,0.6777567863464355,-0.008362546563148499,0.11358591169118881
1781544003960098,100049895,0.6962125301361084,-0.004611714277416468,0.021072860807180405,-0.7175115346908569,-0.20319998264312744,-0.3654811978340149,9.710213661193848,0.7211447358131409,0.050501834601163864,0.12708379328250885
1781544003961841,100066562,0.6962133049964905,-0.004605111666023731,0.02107134275138378,-0.7175108194351196,-0.21763020753860474,-0.36304232478141785,9.716330528259277,0.7388047575950623,0.13143795728683472,0.12029644101858139
1781544003990121,100083229,0.6962094902992249,-0.004606915172189474,0.02107180841267109,-0.71751469373703,-0.2151625156402588,-0.3481867015361786,9.72572135925293,0.6892825365066528,0.10030573606491089,0.07466742396354675
1781544003991832,100099896,0.6962023377418518,-0.0046048760414123535,0.021069612354040146,-0.7175215482711792,-0.21855995059013367,-0.3514017164707184,9.714771270751953,0.721106231212616,0.10706747323274612,0.04427794739603996
1781544004020128,100116563,0.6962084770202637,-0.004607305396348238,0.021071230992674828,-0.7175155282020569,-0.2072376310825348,-0.35575753450393677,9.714688301086426,0.6794344782829285,0.10095885396003723,0.1707918792963028
1781544004021856,100133230,0.6962072849273682,-0.004611256066709757,0.021069500595331192,-0.7175167202949524,-0.21824511885643005,-0.36186206340789795,9.731752395629883,0.6894746422767639,0.07873984426259995,0.09999838471412659
1781544004050364,100149897,0.696204662322998,-0.004612316377460957,0.021069778129458427,-0.7175192832946777,-0.22196803987026215,-0.3598165214061737,9.719388008117676,0.6935727000236511,0.10291821509599686,0.08699993789196014
1781544004080127,100166564,0.696194052696228,-0.004620399791747332,0.021075177937746048,-0.7175293564796448,-0.20778122544288635,-0.3587758541107178,9.726511001586914,0.6355214715003967,0.09412026405334473,0.010648478753864765
1781544004081858,100183231,0.6961886286735535,-0.004620492458343506,0.02106804959475994,-0.7175348401069641,-0.21491575241088867,-0.35508161783218384,9.713408470153809,0.7350908517837524,0.07272084802389145,0.058979637920856476
1781544004110127,100199898,0.6961893439292908,-0.004612799733877182,0.02106979303061962,-0.7175342440605164,-0.21718652546405792,-0.36033856868743896,9.712076187133789,0.7278808951377869,0.15250441431999207,0.11977139860391617
1781544004111861,100216565,0.696187436580658,-0.004610794130712748,0.02107127755880356,-0.7175359725952148,-0.20797790586948395,-0.3716430366039276,9.704073905944824,0.7022041082382202,0.12366451323032379,0.09465813636779785
1781544004140121,100233232,0.6961896419525146,-0.004619871266186237,0.02107483521103859,-0.7175336480140686,-0.21252326667308807,-0.3582286834716797,9.70335578918457,0.6385053992271423,0.07816355675458908,0.13339732587337494
1781544004141823,100249899,0.6961824893951416,-0.004634540062397718,0.021081943064928055,-0.7175403237342834,-0.21525192260742188,-0.3516198396682739,9.737897872924805,0.5951942801475525,0.0692119151353836,0.04356079176068306
1781544004170110,100266566,0.6961789727210999,-0.004633471369743347,0.021076923236250877,-0.7175439596176147,-0.2176336646080017,-0.3510726988315582,9.724019050598145,0.7300451397895813,0.08816531300544739,0.07761288434267044
1781544004171746,100283233,0.6961838603019714,-0.004635422490537167,0.021066991612315178,-0.7175393104553223,-0.22058744728565216,-0.37422144412994385,9.716718673706055,0.7388814687728882,0.04836317524313927,0.1578446477651596
1781544004200445,100299900,0.6961881518363953,-0.004631515126675367,0.021067626774311066,-0.7175352573394775,-0.20959807932376862,-0.35366907715797424,9.720417976379395,0.7148824334144592,0.12789061665534973,0.15302947163581848
1781544004230245,100316567,0.6961865425109863,-0.004621298983693123,0.021075474098324776,-0.7175366878509521,-0.21480140089988708,-0.3526391386985779,9.715561866760254,0.710080087184906,0.19461169838905334,0.0993964895606041
1781544004232904,100333234,0.6961839199066162,-0.004625093657523394,0.021063517779111862,-0.7175395488739014,-0.21244816482067108,-0.3520418405532837,9.714134216308594,0.7408792972564697,0.030908124521374702,0.08438743650913239
1781544004261178,100349901,0.6961989402770996,-0.004628926049917936,0.02105165272951126,-0.7175252437591553,-0.2146618366241455,-0.36050674319267273,9.729604721069336,0.7383308410644531,0.02803950011730194,0.2539050877094269
1781544004262319,100366568,0.696207582950592,-0.004619230050593615,0.021051716059446335,-0.7175169587135315,-0.22128498554229736,-0.3570556938648224,9.722803115844727,0.7449004650115967,0.15300385653972626,0.19553373754024506
1781544004290773,100383235,0.6962069272994995,-0.004617471247911453,0.02105570212006569,-0.7175174355506897,-0.21687908470630646,-0.353139728307724,9.717142105102539,0.6885012984275818,0.13422973453998566,0.10701625794172287
1781544004292944,100399902,0.6962078213691711,-0.0046178665943443775,0.02105039544403553,-0.7175166606903076,-0.22419947385787964,-0.3395179212093353,9.721735954284668,0.7239365577697754,0.07886790484189987,0.12033486366271973
1781544004321250,100416569,0.6961963772773743,-0.004616357386112213,0.021057024598121643,-0.7175275683403015,-0.21206194162368774,-0.3572094738483429,9.72017765045166,0.6754004955291748,0.1475483626127243,0.003528149565681815
1781544004322372,100433236,0.6961986422538757,-0.004617570899426937,0.02105274237692356,-0.7175256013870239,-0.2294209897518158,-0.3547132909297943,9.725353240966797,0.7147544622421265,0.07948261499404907,0.13283386826515198
1781544004350374,100449903,0.6962049603462219,-0.0046255579218268394,0.021050510928034782,-0.7175195217132568,-0.22623802721500397,-0.3567374050617218,9.733159065246582,0.6717763543128967,0.05516335740685463,0.17076626420021057
1781544004380139,100466570,0.6962029933929443,-0.004629936069250107,0.021051516756415367,-0.7175214290618896,-0.2069801539182663,-0.34793636202812195,9.710089683532715,0.6739405989646912,0.08989418298006058,0.09286525100469589
1781544004382058,100483237,0.6962006688117981,-0.0046356450766325,0.021044651046395302,-0.7175236940383911,-0.21004138886928558,-0.3595554530620575,9.715360641479492,0.7064046263694763,0.04573787376284599,0.08878002315759659
1781544004410139,100499904,0.6961928606033325,-0.004638361744582653,0.021046258509159088,-0.7175312638282776,-0.21893899142742157,-0.35543209314346313,9.719788551330566,0.6795496940612793,0.10202178359031677,0.036991141736507416
1781544004411884,100516571,0.6961869597434998,-0.00463728467002511,0.021048033609986305,-0.7175369262695312,-0.21957913041114807,-0.36119693517684937,9.717843055725098,0.6966462135314941,0.12116728723049164,0.05602137744426727
1781544004440140,100533238,0.6961889863014221,-0.004628513939678669,0.021045023575425148,-0.7175350785255432,-0.22721076011657715,-0.3492416739463806,9.718832969665527,0.7562596797943115,0.13487005233764648,0.13180935382843018
1781544004441894,100549905,0.6961908936500549,-0.004624619148671627,0.021040134131908417,-0.7175333499908447,-0.22148524224758148,-0.3498782515525818,9.716901779174805,0.7422111630439758,0.1017400473356247,0.1303110122680664
1781544004470161,100566572,0.6961901187896729,-0.004636489320546389,0.021033000200986862,-0.7175343036651611,-0.22392430901527405,-0.35790684819221497,9.706768035888672,0.6780897974967957,0.013760422356426716,0.10152233392000198
1781544004471798,100583239,0.6961933970451355,-0.004632993601262569,0.02104041539132595,-0.7175309062004089,-0.21850983798503876,-0.3691289722919464,9.716358184814453,0.6793832778930664,0.15849779546260834,0.14543531835079193
1781544004500356,100599906,0.6961854100227356,-0.004640122875571251,0.02102917991578579,-0.7175388932228088,-0.22873419523239136,-0.35581469535827637,9.69329833984375,0.721836268901825,0.018729286268353462,0.033162038773298264
1781544004530137,100616573,0.6961852312088013,-0.004633425269275904,0.021030621603131294,-0.7175390124320984,-0.22460022568702698,-0.3527893126010895,9.717385292053223,0.7245640158653259,0.14626771211624146,0.11142164468765259
1781544004531808,100633240,0.6961861848831177,-0.004637690726667643,0.021027028560638428,-0.7175383567810059,-0.21349969506263733,-0.368091881275177,9.7091064453125,0.696825385093689,0.06786724925041199,0.11991225928068161
1781544004560146,100649907,0.6961881518363953,-0.0046422043815255165,0.021022530272603035,-0.7175365686416626,-0.2288808375597,-0.3478862941265106,9.743619918823242,0.7000206708908081,0.06212360039353371,0.12983077764511108
1781544004561853,100666574,0.6961871981620789,-0.004641953390091658,0.021024487912654877,-0.7175374627113342,-0.22926349937915802,-0.3559470772743225,9.730327606201172,0.6912546157836914,0.11700521409511566,0.10334082692861557
1781544004590142,100683241,0.6961881518363953,-0.004638069309294224,0.021024201065301895,-0.7175363898277283,-0.22076284885406494,-0.3537620007991791,9.720399856567383,0.7194927334785461,0.12379258126020432,0.1225503608584404
1781544004591689,100699908,0.6961889266967773,-0.0046356492675840855,0.02101661078631878,-0.7175359129905701,-0.22548702359199524,-0.3660963475704193,9.723686218261719,0.7486015558242798,0.08177494257688522,0.11831145733594894
1781544004620135,100716575,0.6961879730224609,-0.004633034113794565,0.021009232848882675,-0.7175371646881104,-0.2149408906698227,-0.36069270968437195,9.709918022155762,0.7486528158187866,0.08399044722318649,0.10162479430437088
1781544004621728,100733242,0.6961881518363953,-0.004629319068044424,0.021004343405365944,-0.7175371050834656,-0.21496927738189697,-0.35587188601493835,9.723213195800781,0.7415068745613098,0.10111252963542938,0.11371399462223053
1781544004650364,100749909,0.6961889863014221,-0.004620779771357775,0.021004149690270424,-0.7175363302230835,-0.2220754325389862,-0.3451898992061615,9.715161323547363,0.7413403391838074,0.14726661145687103,0.12111604958772659
1781544004680564,100766576,0.6961925625801086,-0.0046136993914842606,0.02100074291229248,-0.7175329923629761,-0.22403866052627563,-0.3588902950286865,9.722466468811035,0.7499206066131592,0.12425361573696136,0.146511048078537
1781544004681751,100783243,0.6961953639984131,-0.004608459305018187,0.02100050449371338,-0.7175303101539612,-0.22630253434181213,-0.3607034683227539,9.7247314453125,0.7255245447158813,0.1304006725549698,0.13924984633922577
1781544004710566,100799910,0.6961973309516907,-0.004600001964718103,0.02100169099867344,-0.7175284624099731,-0.2187279909849167,-0.36102885007858276,9.716727256774902,0.7340214848518372,0.15324077010154724,0.131892591714859
1781544004711701,100816577,0.6961889863014221,-0.004594485275447369,0.021011151373386383,-0.7175363302230835,-0.21298103034496307,-0.3686390221118927,9.716580390930176,0.680202841758728,0.1800764799118042,0.03455793112516403
1781544004740549,100833244,0.6961935758590698,-0.0046015456318855286,0.021015245467424393,-0.717531681060791,-0.24036404490470886,-0.37044858932495117,9.73678207397461,0.6450878977775574,0.0901246890425682,0.15626949071884155
1781544004741800,100849911,0.6961880922317505,-0.004605956841260195,0.021015776321291924,-0.717536985874176,-0.2273251861333847,-0.3606211543083191,9.737722396850586,0.6765018701553345,0.0878707692027092,0.059043679386377335
1781544004770253,100866578,0.6961868405342102,-0.004601083695888519,0.02101653441786766,-0.7175381183624268,-0.21974016726016998,-0.367594838142395,9.736672401428223,0.7193774580955505,0.13393521308898926,0.10126621276140213
1781544004772104,100883245,0.6961812376976013,-0.004594509955495596,0.021005870774388313,-0.7175440192222595,-0.22032298147678375,-0.3559649586677551,9.725756645202637,0.7843953371047974,0.08852388709783554,0.05663607642054558
1781544004800468,100899912,0.6961765885353088,-0.004588781856000423,0.021010762080550194,-0.7175484299659729,-0.21650007367134094,-0.3612363040447235,9.682907104492188,0.7034207582473755,0.15858742594718933,0.06925033777952194
1781544004830128,100916579,0.6961753368377686,-0.004578280728310347,0.021007349714636803,-0.7175498604774475,-0.21215850114822388,-0.3594803512096405,9.71388053894043,0.76695317029953,0.14179831743240356,0.10038258135318756
1781544004831693,100933246,0.6961766481399536,-0.004576951265335083,0.021003585308790207,-0.7175487279891968,-0.22566214203834534,-0.35797828435897827,9.708779335021973,0.7245000004768372,0.09442762285470963,0.12406151741743088
1781544004860119,100949913,0.6961850523948669,-0.004574676509946585,0.02099871076643467,-0.7175406217575073,-0.2117329239845276,-0.3639792203903198,9.73220157623291,0.7337333559989929,0.09258350729942322,0.19248583912849426
1781544004861854,100966580,0.6961701512336731,-0.004648852162063122,0.020975735038518906,-0.7175552845001221,-0.22882016003131866,-0.35692697763442993,9.709171295166016,0.7293151617050171,0.07852213084697723,0.12648190557956696
1781544004890137,100983247,0.6961659789085388,-0.0046505313366651535,0.020978078246116638,-0.7175592184066772,-0.20944415032863617,-0.36076420545578003,9.699908256530762,0.6806894540786743,0.10991048812866211,0.07259279489517212
1781544004891776,100999914,0.6961601376533508,-0.004645557142794132,0.020976684987545013,-0.7175649404525757,-0.22818705439567566,-0.35812854766845703,9.726304054260254,0.731197714805603,0.1252012848854065,0.05703307315707207
1781544004920135,101016581,0.6961535215377808,-0.0046492344699800014,0.020974112674593925,-0.7175713777542114,-0.2120869755744934,-0.3687427341938019,9.71926212310791,0.6956729888916016,0.07694695144891739,0.04856807738542557
1781544004921840,101033248,0.6961464285850525,-0.004653148353099823,0.02097083441913128,-0.7175784707069397,-0.21722598373889923,-0.37509050965309143,9.725899696350098,0.6980932950973511,0.07254156470298767,0.042792417109012604
1781544004950351,101049915,0.6961436867713928,-0.0046652802266180515,0.02096979320049286,-0.717581033706665,-0.21439720690250397,-0.3700087070465088,9.714112281799316,0.647252082824707,0.041947200894355774,0.08472041040658951
1781544004980130,101066582,0.6961475014686584,-0.00465963501483202,0.020959945395588875,-0.7175776958465576,-0.22658491134643555,-0.366353839635849,9.737865447998047,0.7752003073692322,0.08634680509567261,0.14759956300258636
1781544004981795,101083249,0.6961515545845032,-0.004668068140745163,0.020962221547961235,-0.7175735235214233,-0.21718664467334747,-0.3650699555873871,9.71453857421875,0.6479180455207825,0.07479548454284668,0.15135182440280914
1781544005010131,101099916,0.6961551308631897,-0.004668083507567644,0.020952528342604637,-0.717570424079895,-0.22338078916072845,-0.3586113750934601,9.703224182128906,0.7473593354225159,0.05918455123901367,0.14403942227363586
1781544005011906,101116583,0.6961614489555359,-0.004668703302741051,0.02095596119761467,-0.7175642251968384,-0.22183197736740112,-0.3646407425403595,9.710342407226562,0.6793320178985596,0.11854197829961777,0.17317385971546173
1781544005040128,101133250,0.6961701512336731,-0.004664306063205004,0.0209567379206419,-0.7175557613372803,-0.2144007831811905,-0.35008564591407776,9.71179485321045,0.7162654995918274,0.13017013669013977,0.19648140668869019
1781544005042015,101149917,0.6961750984191895,-0.004659044090658426,0.02095412090420723,-0.717551052570343,-0.2240493893623352,-0.3698692321777344,9.692544937133789,0.7375240325927734,0.11879809200763702,0.1600857675075531
1781544005070140,101166584,0.69617760181427,-0.004656458739191294,0.020951630547642708,-0.7175487279891968,-0.22650253772735596,-0.3598593473434448,9.706772804260254,0.7243974804878235,0.10663206875324249,0.1360226273536682
1781544005071939,101183251,0.6961781978607178,-0.0046539632603526115,0.02094975672662258,-0.7175481915473938,-0.22502200305461884,-0.36594605445861816,9.727458000183105,0.7211447358131409,0.10941105335950851,0.11806812882423401
1781544005100361,101199918,0.6961802840232849,-0.0046405610628426075,0.020954426378011703,-0.7175461053848267,-0.2228977084159851,-0.3655741512775421,9.72163200378418,0.7409048676490784,0.19436834752559662,0.13495969772338867
1781544005130134,101216585,0.696189284324646,-0.004641037434339523,0.020956948399543762,-0.7175373435020447,-0.22283346951007843,-0.3531969487667084,9.741259574890137,0.6843392848968506,0.11440552026033401,0.19837675988674164
1781544005132038,101233252,0.6961879730224609,-0.004641910083591938,0.0209640022367239,-0.7175383567810059,-0.22299082577228546,-0.3547418713569641,9.73076343536377,0.66117262840271,0.13586896657943726,0.10108691453933716
1781544005160126,101249919,0.6961829662322998,-0.00464161392301321,0.020965825766324997,-0.7175431251525879,-0.2043873369693756,-0.366318017244339,9.732911109924316,0.6929707527160645,0.11722291260957718,0.06507546454668045
1781544005161815,101266586,0.6961852312088013,-0.004643556661903858,0.02096436731517315,-0.7175410985946655,-0.22593404352664948,-0.3520776033401489,9.734153747558594,0.6977218985557556,0.08925385028123856,0.13269297778606415
1781544005190130,101283253,0.696189284324646,-0.004642562475055456,0.020963085815310478,-0.7175372242927551,-0.21275930106639862,-0.3555644154548645,9.72612476348877,0.7106691598892212,0.10427569597959518,0.1510060727596283
1781544005191850,101299920,0.6961904764175415,-0.004644569009542465,0.02096995711326599,-0.7175357937812805,-0.22156034409999847,-0.3547418713569641,9.729479789733887,0.6563574075698853,0.12895354628562927,0.12481709569692612
1781544005220141,101316587,0.6961859464645386,-0.004637544509023428,0.020969880744814873,-0.7175402045249939,-0.2252652943134308,-0.35878658294677734,9.731746673583984,0.7345017194747925,0.14128606021404266,0.07014677673578262
1781544005221694,101333254,0.6961823105812073,-0.004638830199837685,0.020971370860934258,-0.7175436615943909,-0.22427469491958618,-0.3735634684562683,9.708101272583008,0.6869004964828491,0.10761815309524536,0.07731833308935165
1781544005250386,101349921,0.6961866617202759,-0.004638021346181631,0.020972397178411484,-0.7175394296646118,-0.22712135314941406,-0.35478121042251587,9.698692321777344,0.698400616645813,0.11430306732654572,0.15381065011024475
1781544005280145,101366588,0.696188747882843,-0.00464490195736289,0.02098269760608673,-0.7175370454788208,-0.22243987023830414,-0.34898412227630615,9.730476379394531,0.6160174608230591,0.12111604958772659,0.13348697125911713
1781544005296191,101383255,0.696187436580658,-0.004637246485799551,0.020990002900362015,-0.7175381779670715,-0.22531169652938843,-0.35035380721092224,9.709237098693848,0.7007186412811279,0.17910321056842804,0.1017400473356247
1781544005310675,101399922,0.6961902379989624,-0.004636973142623901,0.020984183996915817,-0.7175356149673462,-0.21216565370559692,-0.35768866539001465,9.709742546081543,0.7297634482383728,0.07911122590303421,0.13880160450935364
1781544005312284,101416589,0.6961923837661743,-0.004641423933207989,0.02098829858005047,-0.7175334095954895,-0.21877805888652802,-0.35947319865226746,9.708955764770508,0.6581503748893738,0.10349451750516891,0.1326545625925064
1781544005340693,101433256,0.6961857080459595,-0.004628525581210852,0.021000217646360397,-0.7175396084785461,-0.21158628165721893,-0.37115660309791565,9.679604530334473,0.7036640048027039,0.22797220945358276,0.05159037560224533
1781544005342314,101449923,0.6961896419525146,-0.004627371206879616,0.02099771238863468,-0.7175358533859253,-0.2078239917755127,-0.34979233145713806,9.71038818359375,0.7175333499908447,0.09915316104888916,0.14973823726177216
1781544005370682,101466590,0.6961931586265564,-0.004637093283236027,0.021008305251598358,-0.7175320982933044,-0.2154519408941269,-0.3535473644733429,9.73439884185791,0.6008163094520569,0.10825847089290619,0.14663910865783691
1781544005371893,101483257,0.6961953043937683,-0.004645172972232103,0.02100924588739872,-0.7175300121307373,-0.2222362458705902,-0.3516162633895874,9.715761184692383,0.6564342975616455,0.07050536572933197,0.13198864459991455
1781544005400381,101499924,0.6961913704872131,-0.004643882624804974,0.02100960724055767,-0.7175337076187134,-0.21944323182106018,-0.35945531725883484,9.711033821105957,0.7048038244247437,0.11494338512420654,0.07537175714969635
1781544005430411,101516591,0.6961941123008728,-0.004650625865906477,0.02100282721221447,-0.717531144618988,-0.2158026546239853,-0.3544093072414398,9.723406791687012,0.7009234428405762,0.04001343622803688,0.1369446963071823
1781544005432120,101533258,0.6961936354637146,-0.00463776383548975,0.02100949175655842,-0.7175315022468567,-0.20551033318042755,-0.3572130501270294,9.71224594116211,0.728700578212738,0.20159116387367249,0.11075571924448013
1781544005460422,101549925,0.6961894035339355,-0.004624463617801666,0.02100372686982155,-0.7175359725952148,-0.2289237529039383,-0.36278119683265686,9.711377143859863,0.7925785183906555,0.14497429132461548,0.07163232564926147
1781544005462055,101566592,0.696196436882019,-0.0046241688542068005,0.02100987732410431,-0.7175289392471313,-0.22159236669540405,-0.358010470867157,9.706984519958496,0.6702650785446167,0.1358177363872528,0.1809729039669037
1781544005490409,101583259,0.696191132068634,-0.004618708044290543,0.02102009579539299,-0.7175338268280029,-0.2125733345746994,-0.3703591823577881,9.735365867614746,0.6762585043907166,0.18291950225830078,0.06385886669158936
1781544005492030,101599926,0.696186363697052,-0.004606983158737421,0.021028341725468636,-0.7175382971763611,-0.22519734501838684,-0.35543209314346313,9.720839500427246,0.7159709930419922,0.20431891083717346,0.06925033777952194
1781544005520440,101616593,0.6961784362792969,-0.004606787580996752,0.02102830819785595,-0.7175459861755371,-0.21197611093521118,-0.35107627511024475,9.72233772277832,0.7019608020782471,0.10834811627864838,0.03659414127469063
1781544005522049,101633260,0.6961770057678223,-0.004610817413777113,0.02103545516729355,-0.7175471186637878,-0.22159959375858307,-0.3569018244743347,9.72947883605957,0.6455873250961304,0.12068063765764236,0.09958857297897339
1781544005550667,101649927,0.6961862444877625,-0.004615164827555418,0.02102908305823803,-0.7175383567810059,-0.21723313629627228,-0.3607141375541687,9.711634635925293,0.7096830606460571,0.05260207876563072,0.19902989268302917
1781544005580444,101666594,0.6961850523948669,-0.004613387398421764,0.02101978287100792,-0.71753990650177,-0.22208257019519806,-0.36333194375038147,9.704682350158691,0.7545821666717529,0.07062061131000519,0.09905070811510086
1781544005581782,101683261,0.6961926221847534,-0.004616009071469307,0.021020246669650078,-0.7175323963165283,-0.22350580990314484,-0.3562510311603546,9.734804153442383,0.6843135952949524,0.09410744905471802,0.18504531681537628
1781544005610405,101699928,0.6961959004402161,-0.00462339399382472,0.02102055773139,-0.7175291776657104,-0.22644200921058655,-0.3563905358314514,9.704586029052734,0.6627990007400513,0.07058218866586685,0.14281000196933746
1781544005612238,101716595,0.6962069272994995,-0.0046258666552603245,0.021023666486144066,-0.7175184488296509,-0.236165389418602,-0.3506506383419037,9.718259811401367,0.6716610789299011,0.10688818991184235,0.21773995459079742
1781544005640415,101733262,0.6962056756019592,-0.00462334044277668,0.021027566865086555,-0.7175194025039673,-0.21853487193584442,-0.3633176386356354,9.71959114074707,0.6929579973220825,0.1374441385269165,0.10208581387996674
1781544005642072,101749929,0.6962127685546875,-0.004618331789970398,0.021015234291553497,-0.7175130248069763,-0.21977940201759338,-0.357745885848999,9.71965217590332,0.7841007113456726,0.07055658102035522,0.1781298965215683
1781544005670461,101766596,0.6962130665779114,-0.004608158487826586,0.021020442247390747,-0.7175124883651733,-0.23173096776008606,-0.36437609791755676,9.70677661895752,0.7229247689247131,0.18112659454345703,0.11809374392032623
1781544005672057,101783263,0.6962046027183533,-0.004614164587110281,0.021016323938965797,-0.7175208330154419,-0.21484065055847168,-0.34978169202804565,9.721561431884766,0.6925353407859802,0.05821126326918602,0.02960187755525112
1781544005700678,101799930,0.6962026357650757,-0.0046068839728832245,0.021016517654061317,-0.7175227403640747,-0.22422829270362854,-0.3501143157482147,9.723732948303223,0.7341175675392151,0.14324542880058289,0.09445322304964066
1781544005730441,101816597,0.6962030529975891,-0.0046168724074959755,0.021023664623498917,-0.7175222635269165,-0.20619319379329681,-0.36888569593429565,9.716089248657227,0.616824209690094,0.09094429016113281,0.11545563489198685
1781544005731760,101833264,0.6962043046951294,-0.004620837047696114,0.021032558754086494,-0.7175205945968628,-0.2228763848543167,-0.3464343547821045,9.723793029785156,0.6369686126708984,0.12886390089988708,0.12626421451568604
1781544005760408,101849931,0.6962077021598816,-0.004627241753041744,0.021045278757810593,-0.7175168395042419,-0.22056257724761963,-0.34911292791366577,9.719856262207031,0.6061438322067261,0.13471639156341553,0.146511048078537
1781544005762318,101866598,0.6962027549743652,-0.004629446659237146,0.021042603999376297,-0.7175217866897583,-0.22480396926403046,-0.3594910800457001,9.73232650756836,0.7032030820846558,0.08326048403978348,0.06398692727088928
1781544005790130,101883265,0.6962018609046936,-0.004626153502613306,0.02102828398346901,-0.7175230979919434,-0.22707843780517578,-0.35325416922569275,9.713408470153809,0.7865723967552185,0.05398516729474068,0.10136865824460983
1781544005792305,101899932,0.6961943507194519,-0.004619159270077944,0.021022886037826538,-0.7175305485725403,-0.21602080762386322,-0.3534151017665863,9.710482597351074,0.7609341144561768,0.11601912975311279,0.04061533510684967
1781544005820421,101916599,0.6961851716041565,-0.004618785344064236,0.021017873659729958,-0.7175396680831909,-0.2244749814271927,-0.35323989391326904,9.723125457763672,0.7275223731994629,0.08551440387964249,0.023403605446219444
1781544005822330,101933266,0.6961776614189148,-0.004612875171005726,0.021020229905843735,-0.7175468802452087,-0.2197650969028473,-0.3577280044555664,9.711387634277344,0.7174181342124939,0.14779166877269745,0.04157581552863121
1781544005850668,101949933,0.6961820125579834,-0.004612037446349859,0.021016640588641167,-0.7175427675247192,-0.22444649040699005,-0.3490772247314453,9.711384773254395,0.7212086915969849,0.09222492575645447,0.15363135933876038
1781544005880430,101966600,0.6961828470230103,-0.004599635023623705,0.02100459858775139,-0.7175423502922058,-0.21056708693504333,-0.3578674793243408,9.707289695739746,0.8186907172203064,0.10944946110248566,0.11983541399240494
1781544005881770,101983267,0.6961761713027954,-0.004607865121215582,0.021001625806093216,-0.7175489068031311,-0.22913475334644318,-0.3544951379299164,9.731736183166504,0.6759383678436279,0.05243559926748276,0.04649345204234123
1781544005910467,101999934,0.6961816549301147,-0.004607664421200752,0.0210032369941473,-0.7175436019897461,-0.2271319329738617,-0.36073195934295654,9.698712348937988,0.6923689246177673,0.1137780249118805,0.16479851305484772
1781544005911751,102016601,0.6961817741394043,-0.004604150541126728,0.02101065032184124,-0.717543363571167,-0.22373099625110626,-0.3690573573112488,9.72365951538086,0.6801644563674927,0.15880513191223145,0.11489216238260269
1781544005940447,102033268,0.6961803436279297,-0.004607460927218199,0.021012457087635994,-0.7175445556640625,-0.2332974523305893,-0.353007435798645,9.702071189880371,0.6753107905387878,0.09855126589536667,0.09935805946588516
1781544005942081,102049935,0.6961833834648132,-0.004600420128554106,0.021012967452406883,-0.7175415754318237,-0.222357839345932,-0.3436484932899475,9.7236328125,0.7308007478713989,0.14260511100292206,0.14275877177715302
1781544005970437,102066602,0.6961842179298401,-0.004584995564073324,0.021006189286708832,-0.7175411581993103,-0.22915978729724884,-0.35438069701194763,9.691529273986816,0.8071649670600891,0.14952053129673004,0.12053976953029633
1781544005972057,102083269,0.6961868405342102,-0.0045909518375992775,0.021008267998695374,-0.717538595199585,-0.21375694870948792,-0.3579031825065613,9.707555770874023,0.66087806224823,0.0861419066786766,0.13666294515132904
1781544006000661,102099936,0.6961821913719177,-0.004592881537973881,0.02100529335439205,-0.7175431847572327,-0.21798056364059448,-0.34863370656967163,9.725245475769043,0.705866813659668,0.08305557817220688,0.06721412390470505
1781544006030317,102116603,0.6961717009544373,-0.004595165606588125,0.021010756492614746,-0.7175530791282654,-0.22838376462459564,-0.35350096225738525,9.73776626586914,0.6631128191947937,0.12265920639038086,0.012921607121825218
1781544006032233,102133270,0.6961848735809326,-0.004593206103891134,0.021014804020524025,-0.7175402045249939,-0.24711592495441437,-0.35346516966819763,9.707976341247559,0.687873899936676,0.13268019258975983,0.2391393631696701
1781544006060608,102149937,0.6961833238601685,-0.004583088215440512,0.021007107570767403,-0.7175419330596924,-0.22782596945762634,-0.3537406027317047,9.718668937683105,0.7864698767662048,0.11920789629220963,0.09768042713403702
1781544006062421,102166604,0.6961896419525146,-0.004584562033414841,0.021005790680646896,-0.7175359129905701,-0.21728694438934326,-0.34172096848487854,9.723672866821289,0.6986439228057861,0.09121321886777878,0.17202128469944
1781544006090100,102183271,0.6961880922317505,-0.004571139812469482,0.021009411662817,-0.7175374031066895,-0.22314102947711945,-0.36431896686553955,9.686318397521973,0.74639892578125,0.18971966207027435,0.09910193830728531
1781544006092311,102199938,0.6961908340454102,-0.004561515059322119,0.02101152203977108,-0.7175347208976746,-0.21586689352989197,-0.3520274758338928,9.725172996520996,0.7352316379547119,0.16296719014644623,0.14037679135799408
1781544006120449,102216605,0.696186363697052,-0.004562824033200741,0.021005375310778618,-0.7175391912460327,-0.21855275332927704,-0.3471209704875946,9.712979316711426,0.7244231700897217,0.07078709453344345,0.06858441233634949
1781544006122273,102233272,0.6961862444877625,-0.004557941574603319,0.02100639045238495,-0.7175392508506775,-0.21385718882083893,-0.35925862193107605,9.710740089416504,0.7181993126869202,0.13483163714408875,0.11254860460758209
1781544006150673,102249939,0.6961897611618042,-0.00455469312146306,0.021017158403992653,-0.717535674571991,-0.2310444414615631,-0.3470923602581024,9.720131874084473,0.6618768572807312,0.1728280782699585,0.14736905694007874
1781544006180456,102266606,0.6961886882781982,-0.004552111029624939,0.021016424521803856,-0.7175366878509521,-0.21884243190288544,-0.3697476387023926,9.721894264221191,0.7159325480461121,0.11522513628005981,0.10282858461141586
1781544006182263,102283273,0.6961885690689087,-0.004548660945147276,0.021012136712670326,-0.7175369262695312,-0.23418782651424408,-0.35681599378585815,9.726914405822754,0.7375496625900269,0.10239316523075104,0.11099903285503387
1781544006210457,102299940,0.696182906627655,-0.0045399172231554985,0.02101106569170952,-0.7175424695014954,-0.2321709543466568,-0.35815000534057617,9.723604202270508,0.7476154565811157,0.14485901594161987,0.058889999985694885
1781544006212277,102316607,0.6961812973022461,-0.0045448848977684975,0.02100425772368908,-0.7175443172454834,-0.2309371680021286,-0.35005706548690796,9.700437545776367,0.7098622918128967,0.04900350049138069,0.09441480040550232
1781544006240551,102333274,0.696185827255249,-0.004545886535197496,0.020996777340769768,-0.7175401449203491,-0.23038627207279205,-0.34697073698043823,9.732064247131348,0.7314921617507935,0.06425585597753525,0.1544765830039978
1781544006242459,102349941,0.6961902379989624,-0.004548974335193634,0.020995620638132095,-0.7175359129905701,-0.22094866633415222,-0.36134347319602966,9.711010932922363,0.6902685761451721,0.08423376083374023,0.1538746953010559
1781544006270484,102366608,0.6961819529533386,-0.004552814643830061,0.02099956013262272,-0.7175438404083252,-0.2101808488368988,-0.3509046137332916,9.73763656616211,0.6628758907318115,0.10713152587413788,0.03294433653354645
1781544006272340,102383275,0.6961789131164551,-0.0045524174347519875,0.020989058539271355,-0.7175469398498535,-0.22397786378860474,-0.356540709733963,9.707772254943848,0.7538777589797974,0.058031968772411346,0.08228719979524612
1781544006300790,102399942,0.6961723566055298,-0.004549677949398756,0.02098337933421135,-0.7175535559654236,-0.22370249032974243,-0.36400067806243896,9.72352123260498,0.7416989207267761,0.09326224029064178,0.04847843572497368
1781544006330536,102416609,0.6961711645126343,-0.004551049321889877,0.020980622619390488,-0.7175548076629639,-0.20704452693462372,-0.35856127738952637,9.725935935974121,0.7070065140724182,0.08601384609937668,0.10017767548561096
1781544006332237,102433276,0.6961649656295776,-0.00455192755907774,0.02097420021891594,-0.7175610065460205,-0.22063057124614716,-0.34849783778190613,9.716992378234863,0.7280218005180359,0.07183721661567688,0.051756858825683594
1781544006360563,102449943,0.6961629390716553,-0.004558052401989698,0.020974138751626015,-0.7175630331039429,-0.20996271073818207,-0.3510977327823639,9.714037895202637,0.6710591912269592,0.07565351575613022,0.09157181531190872
1781544006362296,102466610,0.6961576342582703,-0.004560107830911875,0.02097718045115471,-0.7175679802894592,-0.2130061239004135,-0.34551170468330383,9.714059829711914,0.6754900217056274,0.11116550117731094,0.062194034457206726
1781544006390614,102483277,0.6961661577224731,-0.004555628634989262,0.020975733175873756,-0.7175596952438354,-0.22434978187084198,-0.3525460958480835,9.719101905822754,0.7274327278137207,0.11951525509357452,0.19450923800468445
1781544006392385,102499944,0.6961678862571716,-0.004554605111479759,0.020972823724150658,-0.7175582051277161,-0.21624955534934998,-0.34252190589904785,9.702338218688965,0.7188524007797241,0.0966431200504303,0.12821076810359955
1781544006420457,102516611,0.6961731314659119,-0.004548883531242609,0.02098182775080204,-0.7175528407096863,-0.21216580271720886,-0.35324349999427795,9.6982421875,0.6821237802505493,0.17623457312583923,0.16504181921482086
1781544006421783,102533278,0.6961686611175537,-0.004555568564683199,0.020977996289730072,-0.7175571918487549,-0.2124195545911789,-0.3554750084877014,9.702107429504395,0.687143862247467,0.05526579171419144,0.06793127954006195
1781544006450864,102549945,0.6961654424667358,-0.004554844927042723,0.020980367437005043,-0.7175602316856384,-0.21361759305000305,-0.3507901728153229,9.700018882751465,0.6918438076972961,0.12134655565023422,0.0822615846991539
1781544006480175,102566612,0.6961715221405029,-0.004546860232949257,0.0209807176142931,-0.7175544500350952,-0.21505539119243622,-0.34722116589546204,9.718196868896484,0.7356030941009521,0.14585791528224945,0.17126572132110596
1781544006482003,102583279,0.6961708068847656,-0.004540781024843454,0.0209699384868145,-0.7175554633140564,-0.21400034427642822,-0.3571344017982483,9.701421737670898,0.782141387462616,0.0844002515077591,0.10451902449131012
1781544006510148,102599946,0.6961633563041687,-0.00454504881054163,0.0209703017026186,-0.7175626754760742,-0.22550132870674133,-0.35212767124176025,9.705183029174805,0.6783202886581421,0.08788356930017471,0.040384821593761444
1781544006511901,102616613,0.6961712837219238,-0.004557509440928698,0.020976990461349487,-0.7175547480583191,-0.20647978782653809,-0.36272045969963074,9.709392547607422,0.6062076687812805,0.0750131905078888,0.18788833916187286
1781544006540156,102633280,0.696175754070282,-0.004562784917652607,0.020976552739739418,-0.7175503969192505,-0.21220484375953674,-0.35195237398147583,9.718770980834961,0.6761688590049744,0.07698537409305573,0.1553858369588852
1781544006542276,102649947,0.6961801648139954,-0.004560272209346294,0.02097526751458645,-0.7175461649894714,-0.2296246886253357,-0.36846378445625305,9.71565055847168,0.7176357507705688,0.11138321459293365,0.15455342829227448
1781544006570161,102666614,0.6961820125579834,-0.004556771367788315,0.020979681983590126,-0.7175442576408386,-0.2249005287885666,-0.3597557246685028,9.721100807189941,0.6945202946662903,0.14393696188926697,0.13148917257785797
1781544006571981,102683281,0.6961826086044312,-0.004555899649858475,0.02098352648317814,-0.7175435423851013,-0.21426130831241608,-0.355643093585968,9.715460777282715,0.6848644018173218,0.1284797191619873,0.11854199320077896
1781544006600385,102699948,0.6961926817893982,-0.0045507424511015415,0.020987339317798615,-0.7175336480140686,-0.2144186645746231,-0.3486873507499695,9.708680152893066,0.7045221328735352,0.14780448377132416,0.21055561304092407
1781544006630441,102716615,0.6961963176727295,-0.004544802941381931,0.020986279472708702,-0.7175301909446716,-0.21364620327949524,-0.35206687450408936,9.724015235900879,0.7330418825149536,0.12952981889247894,0.14711293578147888
1781544006631937,102733282,0.6962034106254578,-0.004540850408375263,0.020979342982172966,-0.7175236344337463,-0.21892468631267548,-0.3571057617664337,9.70414924621582,0.7521232962608337,0.09096990525722504,0.1789495199918747
1781544006660150,102749949,0.6962071657180786,-0.00453863525763154,0.020968126133084297,-0.7175203561782837,-0.23052231967449188,-0.3524531126022339,9.737150192260742,0.765300989151001,0.06251418590545654,0.14653664827346802
1781544006661865,102766616,0.6962136030197144,-0.0045367274433374405,0.02096818946301937,-0.7175140976905823,-0.22952455282211304,-0.34618401527404785,9.699951171875,0.7078390121459961,0.11445676535367966,0.17419837415218353
1781544006690154,102783283,0.696207582950592,-0.004533619619905949,0.020975783467292786,-0.7175197601318359,-0.2217463105916977,-0.35953399538993835,9.713247299194336,0.6777567863464355,0.1585618108510971,0.05705868825316429
1781544006691993,102799950,0.6962081789970398,-0.004534389823675156,0.020969292148947716,-0.7175192832946777,-0.22314448654651642,-0.36366090178489685,9.713890075683594,0.7280089855194092,0.07090236246585846,0.11722292006015778
1781544006720148,102816617,0.6962012052536011,-0.004536957014352083,0.020958775654435158,-0.7175262570381165,-0.20611828565597534,-0.3674803376197815,9.720849990844727,0.7401237487792969,0.044047437608242035,0.04435478895902634
1781544006721861,102833284,0.6961950659751892,-0.004545294214040041,0.0209572184830904,-0.7175322771072388,-0.23385892808437347,-0.35599714517593384,9.71186637878418,0.6682416796684265,0.058377742767333984,0.051667213439941406
1781544006750358,102849951,0.6961968541145325,-0.004546307493001223,0.02095666714012623,-0.7175305485725403,-0.21649643778800964,-0.3399471044540405,9.727673530578613,0.6974273324012756,0.09791093319654465,0.12955541908740997
1781544006780135,102866618,0.6961960196495056,-0.00454716756939888,0.02095727063715458,-0.7175313830375671,-0.2104848325252533,-0.3608357310295105,9.698406219482422,0.6927018165588379,0.10464708507061005,0.10403238981962204
1781544006781906,102883285,0.6961979866027832,-0.00454518711194396,0.020953770726919174,-0.7175295352935791,-0.22350580990314484,-0.3540230691432953,9.701177597045898,0.7262800335884094,0.09855125844478607,0.1314251571893692
1781544006810151,102899952,0.6961938738822937,-0.004559195600450039,0.020945945754647255,-0.7175337076187134,-0.22550490498542786,-0.34966009855270386,9.707972526550293,0.671776294708252,3.201587242074311e-05,0.06978820264339447
1781544006811895,102916619,0.6962000131607056,-0.0045604705810546875,0.020942797884345055,-0.7175278067588806,-0.22098831832408905,-0.35590776801109314,9.737784385681152,0.708504855632782,0.08342696726322174,0.1704845428466797
1781544006840140,102933286,0.6961966156959534,-0.0045509906485676765,0.020952099934220314,-0.7175309062004089,-0.21884958446025848,-0.35403022170066833,9.696074485778809,0.699540376663208,0.19769799709320068,0.08250490576028824
1781544006841795,102949953,0.6962031126022339,-0.004550439305603504,0.020946653559803963,-0.7175248265266418,-0.22066253423690796,-0.35480618476867676,9.73871898651123,0.7285340428352356,0.08136514574289322,0.17371173202991486
1781544006870145,102966620,0.6961808800697327,-0.004646918270736933,0.020992323756217957,-0.717544436454773,-0.22674573957920074,-0.3561865985393524,9.716085433959961,0.7070065140724182,0.1005106270313263,0.11289437115192413
1781544006872110,102983287,0.6961766481399536,-0.004644973669201136,0.02099754847586155,-0.7175483703613281,-0.22969263792037964,-0.3573203384876251,9.720847129821777,0.6841599345207214,0.1413244754076004,0.07306661456823349
1781544006900365,102999954,0.6961786150932312,-0.0046447874046862125,0.02099328115582466,-0.7175465226173401,-0.21770161390304565,-0.3589153289794922,9.701066970825195,0.7219387888908386,0.08610349148511887,0.13110502064228058
1781544006930146,103016621,0.6961819529533386,-0.004645118955522776,0.020997872576117516,-0.7175432443618774,-0.22408170998096466,-0.3672550916671753,9.712264060974121,0.675605297088623,0.1257135272026062,0.14533284306526184
1781544006931722,103033288,0.69618159532547,-0.004644489381462336,0.021000176668167114,-0.7175435423851013,-0.21471895277500153,-0.3577994704246521,9.714090347290039,0.6919078230857849,0.12014276534318924,0.10976962000131607
1781544006960133,103049955,0.696184515953064,-0.004639002960175276,0.020987413823604584,-0.7175411581993103,-0.21741552650928497,-0.3577244281768799,9.69976806640625,0.7891977429389954,0.07142741233110428,0.13903214037418365
1781544006961790,103066622,0.6961801648139954,-0.0046401116997003555,0.020993592217564583,-0.7175450921058655,-0.22635246813297272,-0.35017862915992737,9.737926483154297,0.6648992896080017,0.13087449967861176,0.07068464905023575
1781544006990144,103083289,0.696180522441864,-0.00463351234793663,0.020984528586268425,-0.7175450921058655,-0.21060284972190857,-0.345382958650589,9.719141006469727,0.7765065431594849,0.09509353339672089,0.11482812464237213
1781544006991803,103099956,0.6961725354194641,-0.0046400693245232105,0.02098689414560795,-0.7175527811050415,-0.21822017431259155,-0.3605782389640808,9.70388126373291,0.6579582095146179,0.0863468125462532,0.0356464758515358
1781544007020167,103116623,0.6961753964424133,-0.004644721746444702,0.02098623663187027,-0.7175499200820923,-0.21346381306648254,-0.35476332902908325,9.733634948730469,0.6808688044548035,0.07935454696416855,0.1398901641368866
1781544007022336,103133290,0.6961761713027954,-0.004649720620363951,0.020999670028686523,-0.717548668384552,-0.21789473295211792,-0.35083308815956116,9.711030006408691,0.609870433807373,0.14544811844825745,0.12229424715042114
1781544007050545,103149957,0.6961727142333984,-0.004644207190722227,0.020995749160647392,-0.7175523638725281,-0.22182133793830872,-0.36492687463760376,9.723366737365723,0.7463220357894897,0.11504583805799484,0.07857335358858109
1781544007080304,103166624,0.6961736679077148,-0.004642586689442396,0.020993702113628387,-0.7175513505935669,-0.22193585336208344,-0.35883307456970215,9.713744163513184,0.7179303169250488,0.1039939597249031,0.12248634546995163
1781544007082130,103183291,0.6961775422096252,-0.00463696476072073,0.02100241370499134,-0.7175473570823669,-0.21931461989879608,-0.3639041781425476,9.705740928649902,0.6836989521980286,0.17472343146800995,0.15190251171588898
1781544007110303,103199958,0.6961777210235596,-0.004637845326215029,0.020998379215598106,-0.7175472974777222,-0.21262340247631073,-0.3517521619796753,9.724076271057129,0.7159325480461121,0.08230000734329224,0.11368836462497711
1781544007141073,103216625,0.6961662769317627,-0.004637712147086859,0.021005237475037575,-0.7175582647323608,-0.21439720690250397,-0.36153310537338257,9.70858383178711,0.6682161688804626,0.1414141207933426,0.005064911674708128
1781544007143042,103233292,0.6961655020713806,-0.004640922416001558,0.020996451377868652,-0.7175592184066772,-0.21929670870304108,-0.3595733642578125,9.72886848449707,0.728329062461853,0.04823511093854904,0.10391712188720703
1781544007144595,103249959,0.6961711049079895,-0.004637759178876877,0.020993413403630257,-0.7175538539886475,-0.2254941761493683,-0.3494097590446472,9.72946548461914,0.729763388633728,0.10606858879327774,0.16646333038806915
1781544007170661,103266626,0.6961717009544373,-0.004622453358024359,0.020996181294322014,-0.7175532579421997,-0.22586967051029205,-0.35095110535621643,9.6953125,0.7597814798355103,0.19462449848651886,0.1207062378525734
1781544007171866,103283293,0.6961750984191895,-0.004623095970600843,0.020996633917093277,-0.7175500988960266,-0.21085305511951447,-0.35405516624450684,9.731034278869629,0.6945971846580505,0.10437814891338348,0.14434675872325897
1781544007200881,103299960,0.6961758732795715,-0.004617251455783844,0.02098521962761879,-0.7175496816635132,-0.21598146855831146,-0.3593408763408661,9.72416877746582,0.7844977378845215,0.080020472407341,0.11997627466917038
1781544007230145,103316627,0.696179986000061,-0.004630121868103743,0.02097741886973381,-0.7175458669662476,-0.22852680087089539,-0.3658638894557953,9.737064361572266,0.6767195463180542,0.0044758194126188755,0.14873933792114258
1781544007231804,103333294,0.6961758136749268,-0.004633814562112093,0.020988518372178078,-0.7175495028495789,-0.21980801224708557,-0.35298240184783936,9.713050842285156,0.628221869468689,0.14164462685585022,0.07288733869791031
1781544007260575,103349961,0.6961837410926819,-0.004620686173439026,0.020975224673748016,-0.717542290687561,-0.2138158679008484,-0.3459430932998657,9.712448120117188,0.827885627746582,0.10569720715284348,0.18873357772827148
1781544007261831,103366628,0.6961861848831177,-0.004625564441084862,0.02097506821155548,-0.71753990650177,-0.2158135026693344,-0.3473034203052521,9.696732521057129,0.6774110794067383,0.08069920539855957,0.1367397904396057
1781544007290164,103383295,0.6961860060691833,-0.004628982860594988,0.02098711021244526,-0.7175396680831909,-0.21440793573856354,-0.3565371334552765,9.70832633972168,0.6244439482688904,0.14679275453090668,0.1122412458062172
1781544007291720,103399962,0.6961883902549744,-0.004625844769179821,0.020985879004001617,-0.7175374031066895,-0.22256526350975037,-0.366793692111969,9.72004222869873,0.7210550904273987,0.11517390608787537,0.13565126061439514
1781544007320155,103416629,0.6961858868598938,-0.004631706513464451,0.020987549796700478,-0.7175397872924805,-0.2132885754108429,-0.3602313697338104,9.694933891296387,0.6642076969146729,0.08550159633159637,0.08799883723258972
1781544007321742,103433296,0.69618159532547,-0.0046324473805725574,0.02098398096859455,-0.7175440788269043,-0.2169756442308426,-0.3622662127017975,9.722699165344238,0.7147799730300903,0.08600103855133057,0.07122251391410828
1781544007350393,103449963,0.6961783766746521,-0.004630851559340954,0.0209844671189785,-0.7175471782684326,-0.2182665914297104,-0.36292776465415955,9.69304084777832,0.7058027386665344,0.11672346293926239,0.08320925384759903
1781544007380150,103466630,0.6961786150932312,-0.004626132547855377,0.02099078893661499,-0.717546820640564,-0.21437932550907135,-0.348100870847702,9.724644660949707,0.6916260719299316,0.1594710648059845,0.11726134270429611
1781544007381750,103483297,0.6961761116981506,-0.004620900843292475,0.02099771425127983,-0.7175491452217102,-0.22500790655612946,-0.34878039360046387,9.71696662902832,0.6912674903869629,0.1652723252773285,0.09413307160139084
1781544007410168,103499964,0.6961762309074402,-0.004619202110916376,0.020998934283852577,-0.7175488471984863,-0.21643564105033875,-0.3627382814884186,9.71142292022705,0.7023705840110779,0.12021960318088531,0.11486653238534927
1781544007411915,103516631,0.6961764693260193,-0.004618540406227112,0.020995423197746277,-0.7175487279891968,-0.21361759305000305,-0.3629743158817291,9.697736740112305,0.7207733392715454,0.09240420907735825,0.11491777747869492
1781544007440140,103533298,0.6961804032325745,-0.004618875682353973,0.02098669670522213,-0.7175451517105103,-0.20838932693004608,-0.3645907938480377,9.720611572265625,0.741365909576416,0.06192510202527046,0.1488673985004425
1781544007442043,103549965,0.6961905360221863,-0.004613825120031834,0.020989958196878433,-0.7175352573394775,-0.22898812592029572,-0.3594052493572235,9.723306655883789,0.7072626352310181,0.14474375545978546,0.2122972458600998
1781544007470259,103566632,0.6961959004402161,-0.0046118320897221565,0.020992334932088852,-0.7175299525260925,-0.21753354370594025,-0.3563690483570099,9.715127944946289,0.697542667388916,0.12635384500026703,0.16349226236343384
1781544007471818,103583299,0.6962090134620667,-0.004601703491061926,0.020998524501919746,-0.7175172567367554,-0.22439247369766235,-0.36441540718078613,9.71750545501709,0.7168674468994141,0.18345734477043152,0.23636038601398468
1781544007500482,103599966,0.6962115168571472,-0.0046015032567083836,0.020986126735806465,-0.7175151705741882,-0.2263810783624649,-0.3611146807670593,9.710418701171875,0.7622402906417847,0.04724902659654617,0.13433219492435455
1781544007530230,103616633,0.6962059140205383,-0.004599461797624826,0.02098781429231167,-0.717520534992218,-0.22808697819709778,-0.3614759147167206,9.728121757507324,0.7023834586143494,0.12516285479068756,0.05891561135649681
1781544007531804,103633300,0.6962030529975891,-0.004593917168676853,0.020984454080462456,-0.7175233960151672,-0.2116292119026184,-0.3513623774051666,9.718157768249512,0.7438504099845886,0.11781201511621475,0.0844002440571785
1781544007560238,103649967,0.6962019205093384,-0.004594782367348671,0.02098858915269375,-0.7175244092941284,-0.21849562227725983,-0.362148255109787,9.708967208862305,0.6758871674537659,0.12174355983734131,0.10271333158016205
1781544007562233,103666634,0.6962036490440369,-0.0046007088385522366,0.020982947200536728,-0.7175228595733643,-0.2063935250043869,-0.3557252883911133,9.711955070495605,0.6996556520462036,0.049451716244220734,0.12841567397117615
1781544007590451,103683301,0.6961989402770996,-0.00460893614217639,0.020983029156923294,-0.7175273895263672,-0.22387415170669556,-0.35369762778282166,9.726181983947754,0.6609933376312256,0.06649696826934814,0.07055658102035522
1781544007591747,103699968,0.696200966835022,-0.004611641634255648,0.020989645272493362,-0.7175251841545105,-0.21953609585762024,-0.33971458673477173,9.711658477783203,0.654487669467926,0.12395904958248138,0.13405045866966248
1781544007620141,103716635,0.6962043046951294,-0.004613774828612804,0.02099752426147461,-0.7175216674804688,-0.21063503623008728,-0.3583502769470215,9.720624923706055,0.6508762836456299,0.13262896239757538,0.14556337893009186
1781544007622234,103733302,0.6962105631828308,-0.004615181591361761,0.020999256521463394,-0.7175156474113464,-0.22034817934036255,-0.3453579545021057,9.715275764465332,0.6844417452812195,0.1063375249505043,0.1713169366121292
1781544007650378,103749969,0.6962080001831055,-0.004613374825567007,0.021005138754844666,-0.7175179719924927,-0.21654292941093445,-0.3587043285369873,9.721955299377441,0.6801772117614746,0.14352715015411377,0.0894971713423729
1781544007680150,103766636,0.6962049007415771,-0.004610822070389986,0.02100694365799427,-0.7175209522247314,-0.2242603898048401,-0.3521920442581177,9.715213775634766,0.7038946151733398,0.1277625411748886,0.08518142998218536
1781544007681963,103783303,0.6962001919746399,-0.004612020216882229,0.021003682166337967,-0.7175256013870239,-0.22343070805072784,-0.364082932472229,9.726694107055664,0.7112582325935364,0.08545035868883133,0.06421744078397751
1781544007710152,103799970,0.6961913704872131,-0.004604713525623083,0.02100534737110138,-0.7175341844558716,-0.221853569149971,-0.36093226075172424,9.703815460205078,0.7280216813087463,0.1516079604625702,0.028321240097284317
1781544007711817,103816637,0.696191668510437,-0.004601705353707075,0.021008752286434174,-0.7175336480140686,-0.22289784252643585,-0.35627248883247375,9.716827392578125,0.6979140043258667,0.1371368020772934,0.1164289265871048
1781544007740159,103833304,0.6961854100227356,-0.004600755404680967,0.021018018946051598,-0.7175396084785461,-0.22125275433063507,-0.36062827706336975,9.738990783691406,0.6598663926124573,0.1562182456254959,0.05233314633369446
1781544007741763,103849971,0.6961825489997864,-0.004605409223586321,0.021022194996476173,-0.7175422310829163,-0.22365249693393707,-0.3517521917819977,9.708809852600098,0.6578813791275024,0.10371222347021103,0.08109620958566666
1781544007770153,103866638,0.6961774230003357,-0.004595715086907148,0.021029116585850716,-0.7175471186637878,-0.21779459714889526,-0.3691289722919464,9.7042818069458,0.713153600692749,0.18787555396556854,0.06506266444921494
1781544007772165,103883305,0.6961846351623535,-0.004598744213581085,0.021040119230747223,-0.7175396084785461,-0.22701390087604523,-0.35221344232559204,9.719060897827148,0.6307383179664612,0.14243221282958984,0.1838991791009903
1781544007800693,103899972,0.696178674697876,-0.004600237123668194,0.021033678203821182,-0.7175455689430237,-0.21013793349266052,-0.3417852818965912,9.707206726074219,0.7255629301071167,0.06873808056116104,0.057942330837249756
1781544007830143,103916639,0.6961822509765625,-0.004586442839354277,0.02103072963654995,-0.717542290687561,-0.23046883940696716,-0.3649090826511383,9.70596981048584,0.7804893255233765,0.15933018922805786,0.14859847724437714
1781544007831908,103933306,0.6961820125579834,-0.004581597167998552,0.021040352061390877,-0.717542290687561,-0.21563099324703217,-0.3544808328151703,9.71938419342041,0.6760920286178589,0.1760040819644928,0.11253581196069717
1781544007860442,103949973,0.6961767673492432,-0.004581860266625881,0.02104858309030533,-0.7175471782684326,-0.21816301345825195,-0.35460957884788513,9.715165138244629,0.6590595245361328,0.1450895369052887,0.06215561553835869
1781544007861893,103966640,0.6961783766746521,-0.004575032740831375,0.021040722727775574,-0.7175459265708923,-0.21748003363609314,-0.33581307530403137,9.723321914672852,0.7716146111488342,0.10176566243171692,0.12871022522449493
1781544007890470,103983307,0.6961793303489685,-0.00457785977050662,0.021036900579929352,-0.7175450325012207,-0.20866799354553223,-0.3535831570625305,9.71143627166748,0.7054185271263123,0.07341239601373672,0.12630261480808258
1781544007891759,103999974,0.6961730718612671,-0.004582035355269909,0.021018333733081818,-0.7175517082214355,-0.22932791709899902,-0.3589010238647461,9.724717140197754,0.7726646661758423,-0.0023179491981863976,0.04923401027917862
1781544007920170,104016641,0.6961705684661865,-0.0045810844749212265,0.021018745377659798,-0.7175540328025818,-0.227189302444458,-0.3456118106842041,9.710786819458008,0.7030878067016602,0.11307366192340851,0.09045764058828354
1781544007922199,104033308,0.6961788535118103,-0.004585870075970888,0.02102869190275669,-0.7175456285476685,-0.2108066976070404,-0.3617190718650818,9.719040870666504,0.6273126006126404,0.1284669041633606,0.19594356417655945
1781544007950706,104049975,0.6961806416511536,-0.004585874732583761,0.02102695032954216,-0.71754390001297,-0.22419971227645874,-0.35685548186302185,9.702973365783691,0.7086713910102844,0.09730905294418335,0.130925714969635
1781544007980158,104066642,0.6961774826049805,-0.004573625046759844,0.02102237567305565,-0.7175472378730774,-0.2158026546239853,-0.3609716296195984,9.710865020751953,0.781898021697998,0.1450895518064499,0.0836830884218216
1781544007982131,104083309,0.6961721181869507,-0.004572609905153513,0.02102595753967762,-0.7175523042678833,-0.23036853969097137,-0.3576171398162842,9.723847389221191,0.6881043910980225,0.12912002205848694,0.06198912858963013
1781544008010447,104099976,0.696178138256073,-0.004575242288410664,0.021011989563703537,-0.7175469994544983,-0.20998059213161469,-0.3409019708633423,9.735727310180664,0.7560547590255737,0.025145264342427254,0.1669243425130844
1781544008012027,104116643,0.6961804628372192,-0.004579892382025719,0.02101236581802368,-0.7175447344779968,-0.23346184194087982,-0.35085445642471313,9.741806030273438,0.6759639382362366,0.08451550453901291,0.13389678299427032
1781544008041312,104133310,0.6961777210235596,-0.004583412315696478,0.021013278514146805,-0.7175472974777222,-0.2239277958869934,-0.34687066078186035,9.716501235961914,0.6792295575141907,0.09346713870763779,0.0868462547659874
1781544008042137,104149977,0.6961783170700073,-0.004577347543090582,0.02100720815360546,-0.7175469398498535,-0.20569998025894165,-0.3625130355358124,9.709843635559082,0.7592436075210571,0.10674732178449631,0.1181577816605568
1781544008070332,104166644,0.6961764693260193,-0.004575262777507305,0.021000485867261887,-0.7175489068031311,-0.2395450919866562,-0.3641723394393921,9.72509479522705,0.7436326742172241,0.08442585170269012,0.09568264335393906
1781544008071997,104183311,0.6961748600006104,-0.004572063218802214,0.020994212478399277,-0.7175506949424744,-0.21065302193164825,-0.3445747494697571,9.732895851135254,0.7467062473297119,0.09191757440567017,0.09947331249713898
1781544008100501,104199978,0.6961740851402283,-0.004569839686155319,0.02099187672138214,-0.7175515294075012,-0.2205268293619156,-0.3565872013568878,9.73934268951416,0.7225022912025452,0.10591491311788559,0.10656803101301193
1781544008130171,104216645,0.6961693167686462,-0.00457036541774869,0.020986339077353477,-0.7175562977790833,-0.22801898419857025,-0.34997838735580444,9.715714454650879,0.7255885004997253,0.07770251482725143,0.06738060712814331
1781544008131705,104233312,0.6961716413497925,-0.0045634047128260136,0.02098015882074833,-0.7175542712211609,-0.2224077731370926,-0.3525567352771759,9.706147193908691,0.764007568359375,0.11056361347436905,0.12885108590126038
1781544008160172,104249979,0.6961687207221985,-0.004567504860460758,0.020963303744792938,-0.7175576090812683,-0.205070361495018,-0.3643046021461487,9.698704719543457,0.7640716433525085,0.0054875207133591175,0.08514301478862762
1781544008163605,104266646,0.6961760520935059,-0.004563183058053255,0.020963365212082863,-0.7175504565238953,-0.20765605568885803,-0.35927292704582214,9.714369773864746,0.7199409008026123,0.126417875289917,0.1817028820514679
1781544008190170,104283313,0.6961718201637268,-0.0045538698323071,0.020969191566109657,-0.7175544500350952,-0.21691492199897766,-0.34562259912490845,9.696600914001465,0.7164705395698547,0.18047349154949188,0.07770252972841263
1781544008193598,104299980,0.6961759328842163,-0.004547275137156248,0.02097025327384472,-0.7175503969192505,-0.2118224799633026,-0.35627612471580505,9.695291519165039,0.7262031435966492,0.1429508775472641,0.15259405970573425
1781544008220179,104316647,0.696172833442688,-0.004553496837615967,0.020975589752197266,-0.7175532579421997,-0.22177857160568237,-0.33966103196144104,9.708556175231934,0.6445884108543396,0.1014326885342598,0.08304277807474136
1781544008223675,104333314,0.6961711645126343,-0.004553200211375952,0.020977415144443512,-0.7175548672676086,-0.21756573021411896,-0.34280091524124146,9.699775695800781,0.6928427219390869,0.11659540981054306,0.0963357612490654
1781544008250403,104349981,0.6961607336997986,-0.004551979247480631,0.020987313240766525,-0.7175647616386414,-0.22792242467403412,-0.3506900370121002,9.714988708496094,0.6582911610603333,0.16118711233139038,0.016795527189970016
1781544008310511,104366648,0.6961628794670105,-0.004552131053060293,0.02097442001104355,-0.7175629138946533,-0.21661803126335144,-0.35223495960235596,9.739550590515137,0.7629446983337402,0.043240636587142944,0.13093851506710052
1781544008312169,104383315,0.6961624622344971,-0.004555974621325731,0.020972909405827522,-0.7175634503364563,-0.21068152785301208,-0.35243523120880127,9.712217330932617,0.6893978118896484,0.07999487221240997,0.10604298114776611
1781544008313235,104399982,0.6961572170257568,-0.004564150236546993,0.020965106785297394,-0.7175686955451965,-0.21829885244369507,-0.3567982017993927,9.712678909301758,0.7002063989639282,0.029281722381711006,0.06078534200787544
1781544008340528,104416649,0.6961574554443359,-0.004576209466904402,0.02097412943840027,-0.7175681591033936,-0.2222648561000824,-0.34775039553642273,9.722949028015137,0.5978835821151733,0.08968926221132278,0.1161215528845787
1781544008342069,104433316,0.6961572766304016,-0.004571365658193827,0.020959148183465004,-0.7175687551498413,-0.2167968451976776,-0.3586721420288086,9.72102165222168,0.7974578142166138,0.058339327573776245,0.10749009996652603
1781544008343761,104449983,0.69615638256073,-0.004562701098620892,0.020946215838193893,-0.7175700068473816,-0.21113212406635284,-0.34998196363449097,9.739070892333984,0.8054873943328857,0.08676942437887192,0.11216442286968231
1781544008370690,104466650,0.6961541175842285,-0.004562208894640207,0.020938454195857048,-0.7175724506378174,-0.22144590318202972,-0.3540695607662201,9.710368156433105,0.7411355376243591,0.07170915603637695,0.09129007160663605
1781544008372116,104483317,0.6961597204208374,-0.0045628780499100685,0.02094903029501438,-0.717566728591919,-0.22432474792003632,-0.3676949143409729,9.70229721069336,0.6441529989242554,0.15238916873931885,0.1687556803226471
1781544008400357,104499984,0.6961562633514404,-0.004568575415760279,0.02094734087586403,-0.7175701856613159,-0.2054208517074585,-0.3559255599975586,9.719343185424805,0.6816755533218384,0.0704285129904747,0.07984117418527603
1781544008430510,104516651,0.6961534023284912,-0.004576351027935743,0.020946890115737915,-0.7175728678703308,-0.22320540249347687,-0.3465273380279541,9.746824264526367,0.6656676530838013,0.06617680937051773,0.08150600641965866
1781544008432107,104533318,0.6961532235145569,-0.004593460354954004,0.020941220223903656,-0.7175730466842651,-0.23291131854057312,-0.3600597381591797,9.708566665649414,0.6463300585746765,-0.005519536789506674,0.11067887395620346
1781544008460526,104549985,0.6961526274681091,-0.004601782653480768,0.020953170955181122,-0.7175732254981995,-0.22264394164085388,-0.3383449614048004,9.711956024169922,0.6016743779182434,0.12251196056604385,0.10198336839675903
1781544008461983,104566652,0.6961554288864136,-0.004615169949829578,0.020956216380000114,-0.7175703048706055,-0.21055611968040466,-0.3740104138851166,9.725126266479492,0.6207686066627502,0.0540107786655426,0.1406969577074051
1781544008490159,104583319,0.6961621642112732,-0.004620736464858055,0.020945824682712555,-0.717564046382904,-0.20825685560703278,-0.3658495843410492,9.717388153076172,0.724346399307251,0.0280010849237442,0.16657860577106476
1781544008491776,104599986,0.6961512565612793,-0.004609403666108847,0.020954035222530365,-0.7175744771957397,-0.21344591677188873,-0.35803553462028503,9.71083927154541,0.7151641845703125,0.20325596630573273,0.009816067293286324
1781544008520141,104616653,0.6961584687232971,-0.004607899580150843,0.020957153290510178,-0.7175673842430115,-0.2222074717283249,-0.3523743450641632,9.712956428527832,0.6915748715400696,0.12760886549949646,0.17107360064983368
1781544008521887,104633320,0.6961644291877747,-0.004615609999746084,0.020960746333003044,-0.7175614237785339,-0.22981423139572144,-0.3522742986679077,9.70309829711914,0.6450622081756592,0.08428498357534409,0.1673213541507721
1781544008550393,104649987,0.6961643099784851,-0.004613722674548626,0.020962344482541084,-0.7175616025924683,-0.2206484079360962,-0.36087507009506226,9.716169357299805,0.7015382647514343,0.1232675239443779,0.10560756176710129
1781544008580141,104666654,0.6961638927459717,-0.004618924111127853,0.020966418087482452,-0.7175617814064026,-0.21764788031578064,-0.3602706491947174,9.70580005645752,0.6554481387138367,0.10017766803503036,0.1036866083741188
1781544008581743,104683321,0.6961702108383179,-0.004611935466527939,0.020962249487638474,-0.7175558805465698,-0.21505165100097656,-0.3548133969306946,9.701849937438965,0.7535961270332336,0.1193872019648552,0.17634984850883484
1781544008610164,104699988,0.6961760520935059,-0.0046038199216127396,0.02096107043325901,-0.7175502181053162,-0.21658959984779358,-0.34677770733833313,9.742579460144043,0.7441961765289307,0.13921141624450684,0.1766059696674347
1781544008611785,104716655,0.6961754560470581,-0.0046005696058273315,0.020958662033081055,-0.7175508737564087,-0.2128916233778,-0.34179601073265076,9.734543800354004,0.7277912497520447,0.11069168150424957,0.10754131525754929
1781544008640156,104733322,0.696178674697876,-0.004597265273332596,0.020956452935934067,-0.7175478935241699,-0.22006535530090332,-0.3490949869155884,9.691749572753906,0.7266129851341248,0.11125514656305313,0.14350153505802155
1781544008641827,104749989,0.6961824893951416,-0.004596753511577845,0.02096569910645485,-0.7175440192222595,-0.2189604490995407,-0.3728446364402771,9.714949607849121,0.6567543148994446,0.15227389335632324,0.1481502503156662
1781544008670746,104766656,0.6961830258369446,-0.0045997644774615765,0.020969988778233528,-0.7175433039665222,-0.23050443828105927,-0.36946871876716614,9.70624828338623,0.6644893884658813,0.11147285252809525,0.12399745732545853
1781544008671724,104783323,0.6961905360221863,-0.004605716094374657,0.020966142416000366,-0.7175360321998596,-0.23350845277309418,-0.3558540940284729,9.722016334533691,0.6902815103530884,0.05743007734417915,0.17167551815509796
1781544008700844,104799990,0.6961932182312012,-0.004607364069670439,0.02096657082438469,-0.7175333499908447,-0.2141432911157608,-0.3528035879135132,9.717857360839844,0.6899868249893188,0.09938367456197739,0.14128606021404266
1781544008730241,104816657,0.6961895227432251,-0.004604635294526815,0.020966865122318268,-0.7175370454788208,-0.21163271367549896,-0.3483797609806061,9.720423698425293,0.7124107480049133,0.12161549180746078,0.07565351575613022
1781544008732302,104833324,0.6961830854415894,-0.0046104625798761845,0.020954597741365433,-0.7175435423851013,-0.21975436806678772,-0.34963148832321167,9.726675987243652,0.7337334156036377,0.019805021584033966,0.046967290341854095
1781544008760155,104849991,0.6961808204650879,-0.004607213195413351,0.020962567999958992,-0.7175456285476685,-0.21943965554237366,-0.35872578620910645,9.713580131530762,0.6765914559364319,0.1603931188583374,0.09916596114635468
1781544008761797,104866658,0.6961840987205505,-0.004608345218002796,0.020951319485902786,-0.717542827129364,-0.2098160833120346,-0.3576171398162842,9.723042488098145,0.7501895427703857,0.046211712062358856,0.13803324103355408
1781544008790518,104883325,0.6961848735809326,-0.004599680658429861,0.020957859233021736,-0.7175417542457581,-0.21762293577194214,-0.3576028347015381,9.741510391235352,0.70937579870224,0.1799868494272232,0.12242230772972107
1781544008792354,104899992,0.6961904168128967,-0.004609726369380951,0.02094905823469162,-0.7175367474555969,-0.21668225526809692,-0.3752942979335785,9.709813117980957,0.6951606869697571,0.013542714528739452,0.1598936915397644
1781544008820139,104916659,0.6961896419525146,-0.0046096621081233025,0.02095145359635353,-0.7175372242927551,-0.2170972377061844,-0.36101096868515015,9.721039772033691,0.6889111399650574,0.1179528757929802,0.10759255290031433
1781544008821864,104933326,0.6961898803710938,-0.004613186698406935,0.020938996225595474,-0.7175374031066895,-0.22561566531658173,-0.3596448302268982,9.686203002929688,0.745079755783081,0.02924329787492752,0.10637594014406204
1781544008850372,104949993,0.6961773037910461,-0.004614714067429304,0.020943349227309227,-0.7175495028495789,-0.21793407201766968,-0.35669806599617004,9.72031021118164,0.672916054725647,0.12160269170999527,-0.00801677443087101
1781544008880150,104966660,0.6961764693260193,-0.004621948581188917,0.020973671227693558,-0.7175493836402893,-0.2216247171163559,-0.35468465089797974,9.695694923400879,0.7205684185028076,0.18974527716636658,0.07585840672254562
1781544008881995,104983327,0.6961729526519775,-0.004622789099812508,0.02097107656300068,-0.717552900314331,-0.21580623090267181,-0.3572881519794464,9.706645965576172,0.709644615650177,0.09004784375429153,0.07980276644229889
1781544008910217,104999994,0.6961738467216492,-0.004627138376235962,0.020972203463315964,-0.7175520062446594,-0.2199653536081314,-0.35258185863494873,9.705315589904785,0.674196720123291,0.09009907394647598,0.11370118707418442
1781544008911891,105016661,0.6961717009544373,-0.004624407272785902,0.020973578095436096,-0.7175540328025818,-0.22190724313259125,-0.3561723530292511,9.722341537475586,0.7070448994636536,0.12650752067565918,0.09176389873027802
1781544008940147,105033328,0.6961724758148193,-0.004628435708582401,0.020972056314349174,-0.7175532579421997,-0.21806292235851288,-0.3673158586025238,9.712811470031738,0.6889623403549194,0.07923928648233414,0.10610700398683548
1781544008941864,105049995,0.6961792707443237,-0.0046426174230873585,0.020973678678274155,-0.7175464630126953,-0.22831222414970398,-0.34763237833976746,9.699893951416016,0.6239446401596069,0.04271557927131653,0.17495395243167877
1781544008970141,105066662,0.6961736679077148,-0.00464991619810462,0.020968424156308174,-0.717552125453949,-0.22742527723312378,-0.35838598012924194,9.715409278869629,0.6922152042388916,0.045955587178468704,0.05416445434093475
1781544008971828,105083329,0.6961705684661865,-0.0046499548479914665,0.020971037447452545,-0.7175549268722534,-0.219722181558609,-0.36524519324302673,9.734829902648926,0.6877458095550537,0.11890054494142532,0.08327328413724899
1781544009000372,105099996,0.696185827255249,-0.0046491255052387714,0.02097650058567524,-0.7175400853157043,-0.22708559036254883,-0.36687594652175903,9.708906173706055,0.6764121651649475,0.1343962401151657,0.2371031641960144
1781544009030307,105116663,0.6961912512779236,-0.004658361431211233,0.020966608077287674,-0.7175350189208984,-0.21591009199619293,-0.3465738594532013,9.719788551330566,0.7048294544219971,0.012466980144381523,0.15276053547859192
1781544009032309,105133330,0.6961941719055176,-0.004659975413233042,0.020963694900274277,-0.717532217502594,-0.20556768774986267,-0.3552640676498413,9.723254203796387,0.7070065140724182,0.08370869606733322,0.13676540553569794
1781544009060312,105149997,0.6961949467658997,-0.004661527927964926,0.0209667831659317,-0.7175313830375671,-0.2224186360836029,-0.3534615933895111,9.714960098266602,0.6774110794067383,0.11230528354644775,0.1395827978849411
1781544009062010,105166664,0.696189284324646,-0.004674165043979883,0.020960545167326927,-0.7175370454788208,-0.2116292119026184,-0.3447249233722687,9.722566604614258,0.6711231470108032,0.014221449382603168,0.0718628317117691
1781544009090140,105183331,0.6961843967437744,-0.004666486755013466,0.020957909524440765,-0.7175419330596924,-0.22038014233112335,-0.3474213480949402,9.704924583435059,0.7508939504623413,0.1322447806596756,0.06355150789022446
1781544009091777,105199998,0.6961891055107117,-0.004661804996430874,0.020956939086318016,-0.7175372242927551,-0.21709366142749786,-0.3526068925857544,9.717238426208496,0.7271125316619873,0.12353644520044327,0.16180182993412018
1781544009120233,105216665,0.6961855292320251,-0.00465356232598424,0.020952442660927773,-0.717540979385376,-0.22177499532699585,-0.3678057789802551,9.724259376525879,0.7626373767852783,0.12577757239341736,0.07893193513154984
1781544009121988,105233332,0.6961804628372192,-0.004652256146073341,0.020950602367520332,-0.7175459265708923,-0.22973567247390747,-0.35086891055107117,9.681666374206543,0.7164959907531738,0.10462146252393723,0.06166897341609001
1781544009150483,105249999,0.6961759328842163,-0.0046537150628864765,0.020951682701706886,-0.7175502777099609,-0.20834268629550934,-0.353064626455307,9.704631805419922,0.6886550784111023,0.1046983078122139,0.07058219611644745
1781544009180264,105266666,0.696175217628479,-0.004654885269701481,0.020952561870217323,-0.717551052570343,-0.20477721095085144,-0.3492059111595154,9.702865600585938,0.6906912326812744,0.104595847427845,0.10482636839151382
1781544009182046,105283333,0.696172297000885,-0.004651716910302639,0.02094966731965542,-0.717553973197937,-0.22818340361118317,-0.3516269624233246,9.72006893157959,0.7304677963256836,0.10850180685520172,0.0804302841424942
1781544009210249,105300000,0.6961700320243835,-0.004647199995815754,0.020929740741848946,-0.7175567746162415,-0.21238021552562714,-0.3563118278980255,9.721797943115234,0.820880651473999,0.03345659002661705,0.08483566343784332
1781544009212102,105316667,0.6961706280708313,-0.004655682947486639,0.020931022241711617,-0.7175561189651489,-0.22218626737594604,-0.35739901661872864,9.727792739868164,0.6537513136863708,0.07052456587553024,0.10894361138343811
1781544009240198,105333334,0.6961713433265686,-0.004660588689148426,0.02092968113720417,-0.7175555229187012,-0.2229587435722351,-0.3708956241607666,9.722678184509277,0.6837629675865173,0.0755254477262497,0.11125516891479492
1781544009242194,105350001,0.6961801648139954,-0.004665058106184006,0.020934076979756355,-0.7175467014312744,-0.21535561978816986,-0.3526855707168579,9.697218894958496,0.6566007137298584,0.1035841628909111,0.19459889829158783
1781544009270230,105366668,0.6961736083030701,-0.004654835443943739,0.02093690074980259,-0.7175530195236206,-0.2212957739830017,-0.34804368019104004,9.70937442779541,0.7362306118011475,0.17097117006778717,0.05579086020588875
1781544009271975,105383335,0.6961743831634521,-0.004644530825316906,0.02094166725873947,-0.717552125453949,-0.22334499657154083,-0.3495171070098877,9.704825401306152,0.7262672185897827,0.17951299250125885,0.1224479004740715
1781544009300419,105400002,0.6961711645126343,-0.0046451701782643795,0.02094462513923645,-0.7175552845001221,-0.21886031329631805,-0.356916218996048,9.731429100036621,0.683276355266571,0.11756868660449982,0.08146759867668152
1781544009330288,105416669,0.6961594820022583,-0.00464654341340065,0.020954497158527374,-0.717566192150116,-0.22370606660842896,-0.35477763414382935,9.729089736938477,0.6464581489562988,0.14841920137405396,0.004898428916931152
1781544009332562,105433336,0.6961545944213867,-0.0046556745655834675,0.020953554660081863,-0.7175710201263428,-0.222629576921463,-0.36867114901542664,9.71967601776123,0.6619665622711182,0.057199567556381226,0.06680432707071304
1781544009360991,105450003,0.6961556673049927,-0.004652687814086676,0.02095036394894123,-0.7175700664520264,-0.22810493409633636,-0.3659748136997223,9.702783584594727,0.7303269505500793,0.10494162887334824,0.13205267488956451
1781544009362856,105466670,0.6961538791656494,-0.004646223969757557,0.020945442840456963,-0.717572033405304,-0.23173455893993378,-0.35251739621162415,9.727339744567871,0.7559652328491211,0.11458481848239899,0.09702731668949127
1781544009390862,105483337,0.6961573958396912,-0.0046482328325510025,0.020948167890310287,-0.7175685167312622,-0.21865646541118622,-0.3617834448814392,9.709345817565918,0.6771548986434937,0.10848898440599442,0.14645981788635254
1781544009392563,105500004,0.6961616277694702,-0.00464676646515727,0.02094893530011177,-0.7175643444061279,-0.22384540736675262,-0.342693567276001,9.710638999938965,0.7035360336303711,0.11628805100917816,0.1483423411846161
1781544009420835,105516671,0.6961570382118225,-0.0046470011584460735,0.020945677533745766,-0.7175689339637756,-0.23187047243118286,-0.3595697283744812,9.729889869689941,0.7159069180488586,0.08977891504764557,0.07373255491256714
1781544009423353,105533338,0.6961570382118225,-0.004654357675462961,0.02094917744398117,-0.7175687551498413,-0.21964707970619202,-0.3587472438812256,9.729758262634277,0.648135781288147,0.08639803528785706,0.11149847507476807
1781544009450707,105550005,0.6961584687232971,-0.004658211953938007,0.02094537951052189,-0.717567503452301,-0.23002535104751587,-0.3523208200931549,9.708209037780762,0.7007314562797546,0.06852038204669952,0.12484271824359894
1781544009480956,105566672,0.6961609721183777,-0.004645845387130976,0.0209434162825346,-0.7175651788711548,-0.21824507415294647,-0.3690287470817566,9.701751708984375,0.7692582011222839,0.15720434486865997,0.1345883309841156
1781544009481882,105583339,0.696164071559906,-0.004650465212762356,0.020937161520123482,-0.7175623774528503,-0.22636306285858154,-0.35749194025993347,9.709000587463379,0.7091836929321289,0.05284539982676506,0.1344858855009079
1781544009510476,105600006,0.6961657404899597,-0.0046503241173923016,0.020939985290169716,-0.7175605297088623,-0.22365957498550415,-0.35517460107803345,9.739524841308594,0.6870927214622498,0.11973296105861664,0.13178375363349915
1781544009512001,105616673,0.6961707472801208,-0.004647511523216963,0.020940780639648438,-0.717555582523346,-0.22331969439983368,-0.34834039211273193,9.707867622375488,0.7096191048622131,0.12267842888832092,0.16107186675071716
1781544009540479,105633340,0.6961598992347717,-0.004654218442738056,0.020946037024259567,-0.7175660133361816,-0.2179662585258484,-0.34693145751953125,9.720649719238281,0.6436023116111755,0.09962700307369232,0.014413544908165932
1781544009541943,105650007,0.6961546540260315,-0.004657104145735502,0.020953385159373283,-0.7175708413124084,-0.21898899972438812,-0.36841368675231934,9.72130298614502,0.6510171890258789,0.12767291069030762,0.06493460386991501
1781544009570465,105666674,0.6961475014686584,-0.004653932061046362,0.020951325073838234,-0.7175778150558472,-0.21446873247623444,-0.3494991660118103,9.706198692321777,0.726779580116272,0.11297120898962021,0.043048545718193054
1781544009571912,105683341,0.6961416602134705,-0.00464841490611434,0.020952841266989708,-0.7175834774971008,-0.2209094762802124,-0.3522742986679077,9.70459270477295,0.720094621181488,0.1412220150232315,0.06192510202527046
1781544009600387,105700008,0.6961435079574585,-0.004654465708881617,0.020954396575689316,-0.7175816893577576,-0.23744943737983704,-0.3471173942089081,9.706295013427734,0.6638491153717041,0.08327328413724899,0.12634103000164032
1781544009630608,105716675,0.6961419582366943,-0.00464643444865942,0.020956076681613922,-0.7175832390785217,-0.21301321685314178,-0.35472041368484497,9.722577095031738,0.7309288382530212,0.1537722498178482,0.09880739450454712
1781544009631828,105733342,0.6961437463760376,-0.004635387100279331,0.020957406610250473,-0.7175815105438232,-0.21128246188163757,-0.345325767993927,9.713534355163574,0.7467958927154541,0.16655297577381134,0.1275448352098465
1781544009660472,105750009,0.696143627166748,-0.004635726101696491,0.02095453068614006,-0.7175817489624023,-0.20952270925045013,-0.35161980986595154,9.717723846435547,0.7130510807037354,0.0902143269777298,0.11774797737598419
1781544009661904,105766676,0.6961460113525391,-0.0046308040618896484,0.020958295091986656,-0.7175793051719666,-0.21451880037784576,-0.3510834276676178,9.71534252166748,0.7052520513534546,0.14770202338695526,0.13822533190250397
1781544009690151,105783343,0.6961463093757629,-0.0046494523994624615,0.02095659449696541,-0.7175788879394531,-0.23399856686592102,-0.35075801610946655,9.699153900146484,0.619846522808075,0.005999774672091007,0.10458304733037949
1781544009692292,105800010,0.6961401700973511,-0.004650338087230921,0.020954454317688942,-0.7175849676132202,-0.2225545346736908,-0.3653346002101898,9.706191062927246,0.7075955867767334,0.09237860143184662,0.05100128799676895
1781544009720863,105816677,0.6961519718170166,-0.0046651181764900684,0.0209547970443964,-0.717573344707489,-0.22490768134593964,-0.35596853494644165,9.717817306518555,0.6272485852241516,0.0332004614174366,0.20583006739616394
1781544009722783,105833344,0.6961513757705688,-0.004658713471144438,0.020957285538315773,-0.7175740003585815,-0.2112073302268982,-0.3584612011909485,9.700921058654785,0.7190316915512085,0.1493796557188034,0.10915491729974747
1781544009750875,105850011,0.6961503624916077,-0.004668730776757002,0.020943598821759224,-0.7175753712654114,-0.21096393465995789,-0.3520132005214691,9.741150856018066,0.7203251719474792,-0.008926025591790676,0.1004209890961647
1781544009780196,105866678,0.6961576342582703,-0.004675081931054592,0.020947787910699844,-0.717568039894104,-0.2166573703289032,-0.35639408230781555,9.713611602783203,0.6487247347831726,0.09331346303224564,0.18268896639347076
1781544009782170,105883345,0.6961575150489807,-0.0046868775971233845,0.020939772948622704,-0.7175682783126831,-0.21274131536483765,-0.3536904454231262,9.730544090270996,0.6836477518081665,0.009342231787741184,0.10933420807123184
1781544009810173,105900012,0.6961526274681091,-0.004683546256273985,0.02093622274696827,-0.7175731658935547,-0.2185349464416504,-0.35404813289642334,9.711949348449707,0.7345402836799622,0.10609421133995056,0.06794410198926926
1781544009812173,105916679,0.6961527466773987,-0.004690103232860565,0.02092570625245571,-0.717573344707489,-0.22008337080478668,-0.35525327920913696,9.72585678100586,0.7211318612098694,0.023134669288992882,0.11170336604118347
1781544009840165,105933346,0.6961560249328613,-0.004688131157308817,0.02093401737511158,-0.7175699472427368,-0.21893541514873505,-0.3564942181110382,9.70315170288086,0.668536365032196,0.15460467338562012,0.1515311449766159
1781544009842322,105950013,0.6961483955383301,-0.0046868231147527695,0.020936504006385803,-0.7175772786140442,-0.21290235221385956,-0.353007435798645,9.70028305053711,0.695378303527832,0.1255086213350296,0.04120442643761635
1781544009870581,105966680,0.6961467862129211,-0.004690925125032663,0.020933499559760094,-0.7175790071487427,-0.20879685878753662,-0.3541017472743988,9.711405754089355,0.6959674954414368,0.07160671055316925,0.0945044681429863
1781544009872398,105983347,0.6961461305618286,-0.004685042425990105,0.020938541740179062,-0.7175794243812561,-0.220902219414711,-0.3539872169494629,9.708282470703125,0.7039201855659485,0.1591637283563614,0.10852742195129395
1781544009900391,106000014,0.6961469054222107,-0.0046828556805849075,0.020943323150277138,-0.7175785303115845,-0.22391349077224731,-0.35648706555366516,9.709238052368164,0.687374472618103,0.13942913711071014,0.12138498574495316
1781544009930165,106016681,0.6961560249328613,-0.004687617998570204,0.020952338352799416,-0.7175693511962891,-0.2257266342639923,-0.3492059111595154,9.717903137207031,0.6322430372238159,0.12389504164457321,0.20219303667545319
1781544009932065,106033348,0.696159303188324,-0.004686289932578802,0.020956382155418396,-0.717566192150116,-0.21830587089061737,-0.36263808608055115,9.702860832214355,0.686644434928894,0.13127148151397705,0.14270754158496857
1781544009960447,106050015,0.696158230304718,-0.004697077441960573,0.020954051986336708,-0.7175672054290771,-0.22211474180221558,-0.33710405230522156,9.724595069885254,0.6605066657066345,0.04161423072218895,0.10287980735301971
1781544009961912,106066682,0.6961595416069031,-0.004702933598309755,0.020948363468050957,-0.7175660133361816,-0.2201298624277115,-0.34333378076553345,9.689318656921387,0.7005009055137634,0.04957978054881096,0.1216282993555069
1781544009990469,106083349,0.6961649656295776,-0.004699300974607468,0.020953934639692307,-0.7175605893135071,-0.2224685549736023,-0.35715216398239136,9.703057289123535,0.6898844242095947,0.1494693011045456,0.16583581268787384
1781544009991917,106100016,0.6961730718612671,-0.004690880421549082,0.02094416134059429,-0.7175530195236206,-0.21564172208309174,-0.35372623801231384,9.695151329040527,0.7882627844810486,0.09925560653209686,0.18795238435268402
1781544010020688,106116683,0.6961729526519775,-0.004687957465648651,0.02094079926609993,-0.7175533771514893,-0.22390276193618774,-0.3558505177497864,9.739710807800293,0.7311848998069763,0.10422447323799133,0.11079412698745728
1781544010023016,106133350,0.6961736679077148,-0.004697984084486961,0.02093922346830368,-0.717552661895752,-0.2234451174736023,-0.33604907989501953,9.696149826049805,0.6602762341499329,0.048721760511398315,0.1175558939576149
1781544010051855,106150017,0.6961731910705566,-0.004706843756139278,0.020943064242601395,-0.717552900314331,-0.21279148757457733,-0.3479721248149872,9.70910930633545,0.6392225027084351,0.08057114481925964,0.10871950536966324
1781544010080614,106166684,0.6961782574653625,-0.004723218735307455,0.02094992622733116,-0.7175477147102356,-0.22933144867420197,-0.34683847427368164,9.726901054382324,0.5876001119613647,0.056930627673864365,0.16251897811889648
1781544010082400,106183351,0.6961794495582581,-0.004725398030132055,0.02095334418118,-0.7175465226173401,-0.20965157449245453,-0.35674455761909485,9.727544784545898,0.6728007197380066,0.11079414188861847,0.1356256604194641
1781544010110149,106200018,0.6961845755577087,-0.004731207620352507,0.020963583141565323,-0.7175410389900208,-0.22445349395275116,-0.3559721112251282,9.706262588500977,0.6217930316925049,0.12567511200904846,0.15251722931861877
1781544010112267,106216685,0.6961880922317505,-0.00471981568261981,0.0209659431129694,-0.7175377607345581,-0.2186385840177536,-0.36925414204597473,9.713644027709961,0.7429924011230469,0.17270003259181976,0.14786852896213531
1781544010140153,106233352,0.6961889266967773,-0.004710066597908735,0.020972104743123055,-0.7175367474555969,-0.2212204933166504,-0.3423502445220947,9.715641975402832,0.7168161869049072,0.18349577486515045,0.11646734923124313
1781544010142353,106250019,0.6961889266967773,-0.004709271714091301,0.020972739905118942,-0.7175368666648865,-0.22542980313301086,-0.3548884987831116,9.697519302368164,0.7013077139854431,0.11304804682731628,0.10492882132530212
1781544010170172,106266686,0.6961869597434998,-0.004710314329713583,0.02096967212855816,-0.7175388336181641,-0.21580274403095245,-0.36989787220954895,9.722124099731445,0.7108484506607056,0.08633400499820709,0.09428673982620239
1781544010172209,106283353,0.6961842775344849,-0.00471959263086319,0.02097301557660103,-0.7175410985946655,-0.20909368991851807,-0.3479721248149872,9.711108207702637,0.6400165557861328,0.07671643048524857,0.08190301060676575
1781544010200738,106300020,0.696182906627655,-0.004722121171653271,0.020970972254872322,-0.7175425887107849,-0.21963277459144592,-0.3571665585041046,9.705704689025879,0.6987080574035645,0.08392640948295593,0.09547774493694305
1781544010230164,106316687,0.6961904764175415,-0.004712452180683613,0.02095826156437397,-0.7175357341766357,-0.21613165736198425,-0.3651450574398041,9.710725784301758,0.8085992932319641,0.09117481112480164,0.18918180465698242
1781544010232228,106333354,0.6961880326271057,-0.004705428145825863,0.02094392105937004,-0.717538595199585,-0.21089966595172882,-0.3639935255050659,9.71487045288086,0.8049623966217041,0.07190125435590744,0.09805181622505188
1781544010260167,106350021,0.6961800456047058,-0.004712301306426525,0.020933393388986588,-0.7175465226173401,-0.22730018198490143,-0.3481152057647705,9.705952644348145,0.7205557227134705,0.023057835176587105,0.03089532069861889
1781544010262270,106366688,0.6961791515350342,-0.004714383278042078,0.020933249965310097,-0.7175474166870117,-0.2099054902791977,-0.3529895544052124,9.717459678649902,0.691305935382843,0.09492705762386322,0.1063375249505043
1781544010290167,106383355,0.6961787939071655,-0.004710901994258165,0.02094021998345852,-0.717547595500946,-0.20940838754177094,-0.34183892607688904,9.70925235748291,0.6828922033309937,0.15658964216709137,0.10628629475831985
1781544010292248,106400022,0.6961787939071655,-0.0047032395377755165,0.020937614142894745,-0.7175477743148804,-0.20797063410282135,-0.3411557972431183,9.70920467376709,0.7500742673873901,0.1312330663204193,0.11131919175386429
1781544010320276,106416689,0.6961787343025208,-0.004708273336291313,0.020934389904141426,-0.7175477743148804,-0.2100270837545395,-0.3601526916027069,9.728568077087402,0.6924329400062561,0.06583103537559509,0.10527461022138596
1781544010322508,106433356,0.6961766481399536,-0.004697918426245451,0.020930685102939606,-0.7175499200820923,-0.21482634544372559,-0.3501535952091217,9.708394050598145,0.7686050534248352,0.13960841298103333,0.09319821000099182
1781544010350796,106450023,0.6961771845817566,-0.004693540278822184,0.02092570811510086,-0.7175496220588684,-0.20394407212734222,-0.35418403148651123,9.70224380493164,0.7460018396377563,0.10358414798974991,0.11678750067949295
1781544010380199,106466690,0.6961800456047058,-0.004696461837738752,0.02092759683728218,-0.7175467610359192,-0.21293440461158752,-0.35113340616226196,9.722003936767578,0.6768603920936584,0.09997276961803436,0.14186233282089233
1781544010381859,106483357,0.6961804032325745,-0.004703068640083075,0.020928682759404182,-0.7175463438034058,-0.21761231124401093,-0.35225287079811096,9.705497741699219,0.6634521484375,0.07847090065479279,0.11487936973571777
1781544010410260,106500024,0.6961706280708313,-0.00469992496073246,0.02093535102903843,-0.7175557017326355,-0.21908201277256012,-0.35250669717788696,9.716310501098633,0.6836733818054199,0.15506568551063538,0.020355692133307457
1781544010411934,106516691,0.6961666345596313,-0.004705613013356924,0.020937204360961914,-0.7175595760345459,-0.21843473613262177,-0.36586031317710876,9.726901054382324,0.6644253730773926,0.08729448914527893,0.07742077857255936
1781544010440249,106533358,0.6961622834205627,-0.004713751841336489,0.02094307728111744,-0.7175635099411011,-0.2157132476568222,-0.3508223593235016,9.713461875915527,0.6329345703125,0.09453006088733673,0.07363010942935944
1781544010442107,106550025,0.696164608001709,-0.00471505057066679,0.02094448171555996,-0.7175610661506653,-0.22661352157592773,-0.35311469435691833,9.738964080810547,0.6870414018630981,0.10577405244112015,0.136726975440979
1781544010470227,106566692,0.6961559653282166,-0.004703694023191929,0.02093309909105301,-0.717569887638092,-0.22476820647716522,-0.354130357503891,9.717402458190918,0.8119546175003052,0.10896282643079758,0.029461007565259933
1781544010471977,106583359,0.6961561441421509,-0.004697469994425774,0.020931024104356766,-0.717569887638092,-0.22912044823169708,-0.35296809673309326,9.710271835327148,0.7405208349227905,0.12658438086509705,0.11535319685935974
1781544010500453,106600026,0.6961572766304016,-0.004694630857557058,0.02094094641506672,-0.717568576335907,-0.22425681352615356,-0.34853002429008484,9.71159839630127,0.664950430393219,0.16719329357147217,0.12422798573970795
1781544010530215,106616693,0.6961525678634644,-0.004681899677962065,0.02093399316072464,-0.7175732851028442,-0.21467256546020508,-0.34752508997917175,9.703824043273926,0.7961771488189697,0.1361250877380371,0.07096639275550842
1781544010532076,106633360,0.6961536407470703,-0.0046861483715474606,0.020925436168909073,-0.7175723910331726,-0.2170686274766922,-0.35624030232429504,9.738402366638184,0.7223101854324341,0.04388095811009407,0.11779920756816864
1781544010560232,106650027,0.6961521506309509,-0.00468633696436882,0.02092396281659603,-0.7175739407539368,-0.22972840070724487,-0.3467097282409668,9.710747718811035,0.7069936990737915,0.09815426170825958,0.09719377756118774
1781544010562051,106666694,0.6961497664451599,-0.004690477624535561,0.020923079922795296,-0.717576265335083,-0.23027198016643524,-0.3657601773738861,9.716598510742188,0.6851205229759216,0.0814419761300087,0.0935824066400528
1781544010590226,106683361,0.696147084236145,-0.004699267912656069,0.02091774344444275,-0.7175788879394531,-0.2132420837879181,-0.3674696087837219,9.708577156066895,0.6850308179855347,0.03733690828084946,0.08644925802946091
1781544010591986,106700028,0.6961409449577332,-0.004706331994384527,0.020911015570163727,-0.7175850868225098,-0.23314368724822998,-0.36442267894744873,9.736471176147461,0.700616180896759,0.039885375648736954,0.05130864307284355
1781544010620222,106716695,0.6961367130279541,-0.004710361361503601,0.0209142304956913,-0.7175891995429993,-0.21855281293392181,-0.36931493878364563,9.734823226928711,0.6659494042396545,0.10232912749052048,0.06387166678905487
1781544010621951,106733362,0.6961435079574585,-0.00471770204603672,0.020913470536470413,-0.7175825238227844,-0.2133815586566925,-0.3521062135696411,9.715539932250977,0.6683185696601868,0.0647168830037117,0.17856533825397491
1781544010650456,106750029,0.6961431503295898,-0.004721976816654205,0.020916342735290527,-0.7175827622413635,-0.22124575078487396,-0.34124886989593506,9.721973419189453,0.6659621596336365,0.09860248118638992,0.10732360929250717
1781544010680256,106766696,0.6961497664451599,-0.004721956793218851,0.020918769761919975,-0.7175762057304382,-0.22601613402366638,-0.3667149543762207,9.743121147155762,0.6878995299339294,0.11640331149101257,0.1751972734928131
1781544010681964,106783363,0.696150541305542,-0.004721944686025381,0.0209108404815197,-0.7175756692886353,-0.21358540654182434,-0.3464808464050293,9.695777893066406,0.7396627068519592,0.06781601905822754,0.11764552444219589
1781544010710234,106800030,0.6961581110954285,-0.00473747169598937,0.02090606465935707,-0.7175682783126831,-0.221077561378479,-0.35822510719299316,9.737443923950195,0.6489425301551819,0.004988073371350765,0.18290668725967407
1781544010711919,106816697,0.6961575746536255,-0.004739325027912855,0.020905980840325356,-0.7175688743591309,-0.21029897034168243,-0.35923004150390625,9.713279724121094,0.6920231580734253,0.09628454595804214,0.10901404917240143
1781544010740186,106833364,0.6961607933044434,-0.004738581832498312,0.02090715616941452,-0.7175657749176025,-0.22230777144432068,-0.35104766488075256,9.719459533691406,0.6979524493217468,0.1144951730966568,0.1442570984363556
1781544010741896,106850031,0.6961599588394165,-0.00473434804007411,0.02090899832546711,-0.7175665497779846,-0.22445349395275116,-0.3531075417995453,9.71120834350586,0.7117064595222473,0.13567687571048737,0.10558194667100906
1781544010770181,106866698,0.6961648464202881,-0.00472909165546298,0.020904172211885452,-0.7175620198249817,-0.21847407519817352,-0.3524709939956665,9.710014343261719,0.7489985823631287,0.10781025141477585,0.1575244963169098
1781544010771919,106883365,0.6961575746536255,-0.0047300090081989765,0.0209024790674448,-0.7175690531730652,-0.22272981703281403,-0.35761359333992004,9.717321395874023,0.7052136659622192,0.09438919275999069,0.044213924556970596
1781544010800404,106900032,0.6961565613746643,-0.004737633280456066,0.02090155892074108,-0.7175700068473816,-0.21288804709911346,-0.3674624562263489,9.717788696289062,0.6687796115875244,0.06417901813983917,0.09528564661741257
1781544010830287,106916699,0.6961554884910583,-0.00473056361079216,0.020910199731588364,-0.717570960521698,-0.2080923467874527,-0.3495277762413025,9.731593132019043,0.6919335126876831,0.18240724503993988,0.09801340103149414
1781544010832006,106933366,0.69615638256073,-0.004729566164314747,0.020915282890200615,-0.717569887638092,-0.22936005890369415,-0.3657101094722748,9.690295219421387,0.6800235509872437,0.13485725224018097,0.12365170568227768
1781544010860281,106950033,0.6961540579795837,-0.004728063941001892,0.020922595635056496,-0.7175719738006592,-0.22858750820159912,-0.3620980679988861,9.711217880249023,0.6717250347137451,0.14840637147426605,0.09651505947113037
1781544010862101,106966700,0.6961849927902222,-0.004676823038607836,0.020940309390425682,-0.7175416350364685,-0.22756469249725342,-0.35459163784980774,9.706937789916992,0.723052978515625,0.10207302123308182,0.10139428079128265
1781544010890271,106983367,0.6961856484413147,-0.004679968114942312,0.020938584581017494,-0.7175411581993103,-0.22159957885742188,-0.3586685061454773,9.740432739257812,0.6938287615776062,0.08155723661184311,0.11749184876680374
1781544010891972,107000034,0.696194052696228,-0.0046792770735919476,0.020927833393216133,-0.7175333499908447,-0.22647744417190552,-0.35640835762023926,9.699137687683105,0.755914032459259,0.05598295107483864,0.18842622637748718
1781544010920300,107016701,0.6961917281150818,-0.004674871917814016,0.0209314227104187,-0.7175354957580566,-0.2137855887413025,-0.3520238995552063,9.711865425109863,0.7040354609489441,0.14473095536231995,0.09114918112754822
1781544010922088,107033368,0.6961908936500549,-0.004671888891607523,0.020932963117957115,-0.7175362706184387,-0.21780532598495483,-0.35686972737312317,9.702740669250488,0.7070961594581604,0.12762166559696198,0.10513371974229813
1781544010950521,107050035,0.6961914300918579,-0.0046705808490514755,0.0209291260689497,-0.7175358533859253,-0.21465468406677246,-0.34820815920829773,9.715560913085938,0.7255629301071167,0.09342871606349945,0.11610876023769379
