host_t_us,sensor_t_us,qw,qx,qy,qz,ax,ay,az,gx,gy,gz
1781544003543999,99667467,0.7797969579696655,0.0021442342549562454,0.017542412504553795,-0.6257830262184143,-0.28720879554748535,-0.18033382296562195,10.317411422729492,0.42123284935951233,0.0998062863945961,0.6098960041999817
1781544003545822,99684134,0.779792308807373,0.00215344806201756,0.01752418279647827,-0.625789225101471,-0.29402145743370056,-0.19284698367118835,10.313420295715332,0.5630759596824646,0.0769597589969635,0.5869982242584229
1781544003574168,99700801,0.779788613319397,0.0021532359533011913,0.017528869211673737,-0.6257936954498291,-0.29112115502357483,-0.18795830011367798,10.309318542480469,0.4136899411678314,0.15924057364463806,0.6001631617546082
1781544003603914,99717468,0.7797895073890686,0.0021459367126226425,0.0175348911434412,-0.6257923245429993,-0.28839966654777527,-0.20002442598342896,10.311210632324219,0.3708398640155792,0.1365348845720291,0.5950406193733215
1781544003605661,99734135,0.7797784805297852,0.0021470014471560717,0.017539916560053825,-0.6258062720298767,-0.2829495072364807,-0.18862347304821014,10.294048309326172,0.4201955497264862,0.16737258434295654,0.5227615833282471
1781544003633948,99750802,0.7797788977622986,0.002149065723642707,0.01755249872803688,-0.6258052587509155,-0.2806035280227661,-0.19288989901542664,10.317815780639648,0.39287954568862915,0.21222041547298431,0.5924280881881714
1781544003635712,99767469,0.7797688841819763,0.0021583237685263157,0.017553819343447685,-0.6258176565170288,-0.2838360667228699,-0.19658397138118744,10.304637908935547,0.47988593578338623,0.18286827206611633,0.5356704592704773
1781544003663944,99784136,0.7797578573226929,0.0021668425761163235,0.017553867772221565,-0.6258313655853271,-0.2881600558757782,-0.1912841796875,10.302895545959473,0.481704443693161,0.17318664491176605,0.5193166136741638
1781544003665771,99800803,0.7797529101371765,0.0021700584329664707,0.017541036009788513,-0.6258378624916077,-0.2929624915122986,-0.19884419441223145,10.308443069458008,0.5078421831130981,0.08081446588039398,0.5807743668556213
1781544003693991,99817470,0.7797461748123169,0.002169674262404442,0.01752830110490322,-0.6258465647697449,-0.2954626679420471,-0.19777141511440277,10.284943580627441,0.48850464820861816,0.06617680937051773,0.5589267611503601
1781544003695748,99834137,0.7797484993934631,0.0021689357236027718,0.017527995631098747,-0.6258437633514404,-0.2954988181591034,-0.19903041422367096,10.298171997070312,0.4331171214580536,0.13136112689971924,0.6100368499755859
1781544003724175,99850804,0.7797529101371765,0.0021697236225008965,0.01753137819468975,-0.6258381605148315,-0.2893652319908142,-0.1779806911945343,10.320891380310059,0.42349955439567566,0.15656402707099915,0.6865803599357605
1781544003753906,99867471,0.7797463536262512,0.0021718298085033894,0.017523471266031265,-0.6258465051651001,-0.28572824597358704,-0.18728239834308624,10.303436279296875,0.48103854060173035,0.10295664519071579,0.5620002150535583
1781544003755610,99884138,0.7797497510910034,0.0021695257164537907,0.017523668706417084,-0.6258423328399658,-0.28991955518722534,-0.19380897283554077,10.307101249694824,0.42087432742118835,0.12650752067565918,0.671776294708252
1781544003783947,99900805,0.7797480225563049,0.0021682733204215765,0.0175266545265913,-0.6258443593978882,-0.29697540402412415,-0.19976693391799927,10.316217422485352,0.4152906835079193,0.14657509326934814,0.617912769317627
1781544003785600,99917472,0.7797403931617737,0.002164285397157073,0.017523666843771935,-0.625853955745697,-0.28550684452056885,-0.19027939438819885,10.30914306640625,0.42736712098121643,0.10344327986240387,0.5515118837356567
1781544003813955,99934139,0.7797344923019409,0.0021643484942615032,0.01753108948469162,-0.6258610486984253,-0.2824452817440033,-0.19365163147449493,10.286989212036133,0.4035857021808624,0.1764010637998581,0.5844369530677795
1781544003815729,99950806,0.7797317504882812,0.0021567123476415873,0.01753176376223564,-0.6258643865585327,-0.2913321554660797,-0.19886931777000427,10.272111892700195,0.39098426699638367,0.1069522425532341,0.6133921146392822
1781544003843946,99967473,0.7797349095344543,0.0021610786207020283,0.017523175105452538,-0.6258609890937805,-0.2844837009906769,-0.17351758480072021,10.315591812133789,0.49608588218688965,0.10951347649097443,0.6173877120018005
1781544003845744,99984140,0.7797335982322693,0.002159976167604327,0.017524978145956993,-0.6258625388145447,-0.2832717299461365,-0.1955328732728958,10.29227066040039,0.42266714572906494,0.14224651455879211,0.5706701278686523
1781544003874181,100000807,0.7797374129295349,0.0021578113082796335,0.01752840355038643,-0.6258577108383179,-0.2855605185031891,-0.18419985473155975,10.288248062133789,0.40919485688209534,0.14592194557189941,0.6272997260093689
1781544003903907,100017474,0.7797314524650574,0.0021621007472276688,0.017517918720841408,-0.6258652210235596,-0.28982657194137573,-0.19682371616363525,10.288265228271484,0.5039106011390686,0.09937087446451187,0.5644719004631042
1781544003905725,100034141,0.779729962348938,0.0021627433598041534,0.017504701390862465,-0.625867486000061,-0.2853388786315918,-0.19542911648750305,10.304411888122559,0.4952663481235504,0.06858440488576889,0.615684449672699
1781544003933942,100050808,0.7797359228134155,0.002158029703423381,0.01750880293548107,-0.6258599162101746,-0.28879305720329285,-0.19531813263893127,10.302763938903809,0.39227765798568726,0.13862232863903046,0.6505690217018127
1781544003935723,100067475,0.7797268629074097,0.0021641203202307224,0.01750190183520317,-0.6258714199066162,-0.29164329171180725,-0.198368638753891,10.300882339477539,0.5000559091567993,0.1277625411748886,0.48509812355041504
1781544003963951,100084142,0.7797151803970337,0.002177524147555232,0.017490439116954803,-0.6258862018585205,-0.2856173813343048,-0.18871645629405975,10.283329963684082,0.5580174326896667,0.13430659472942352,0.5008115172386169
1781544003965583,100100809,0.7797097563743591,0.002165710087865591,0.01749429851770401,-0.6258929967880249,-0.2824166715145111,-0.19325824081897736,10.319024085998535,0.35565149784088135,0.1072467714548111,0.5737948417663574
1781544003993941,100117476,0.7797013521194458,0.0021676344331353903,0.017491284757852554,-0.6259036064147949,-0.29114586114883423,-0.1964874416589737,10.296277046203613,0.4595238268375397,0.1300036460161209,0.5379627346992493
1781544003995714,100134143,0.779699981212616,0.0021794834174215794,0.017490236088633537,-0.6259052157402039,-0.2861967086791992,-0.204966738820076,10.293880462646484,0.5033599734306335,0.18279141187667847,0.6087177991867065
1781544004024178,100150810,0.7796980738639832,0.0021841342095285654,0.01747884415090084,-0.6259079575538635,-0.2937277853488922,-0.1982576847076416,10.292815208435059,0.5089435577392578,0.09620770066976547,0.6155948042869568
1781544004053903,100167477,0.7796955108642578,0.0021821758709847927,0.017476826906204224,-0.6259111762046814,-0.30556222796440125,-0.19371256232261658,10.304834365844727,0.4348844289779663,0.11913106590509415,0.5565703511238098
1781544004055688,100184144,0.7796974182128906,0.002186208963394165,0.01747644506394863,-0.6259088516235352,-0.2786112129688263,-0.18677085638046265,10.300374984741211,0.4592292606830597,0.1532599776983261,0.6063613891601562
1781544004083948,100200811,0.7797030806541443,0.0021867970936000347,0.017471326515078545,-0.6259019374847412,-0.3016580045223236,-0.19116759300231934,10.304842948913574,0.45908844470977783,0.11189548671245575,0.6939697265625
1781544004085948,100217478,0.7797000408172607,0.002174349268898368,0.0174684040248394,-0.6259056329727173,-0.3009277880191803,-0.1901935636997223,10.310323715209961,0.3809312582015991,0.06837949901819229,0.6063870191574097
1781544004114053,100234145,0.7796932458877563,0.00217008450999856,0.01747782900929451,-0.6259138584136963,-0.27693790197372437,-0.1862095445394516,10.28127384185791,0.37250468134880066,0.1703692525625229,0.5586962103843689
1781544004115594,100250812,0.779690682888031,0.0021729175932705402,0.01747334562242031,-0.6259171962738037,-0.28706178069114685,-0.2053564339876175,10.300246238708496,0.47121602296829224,0.12689170241355896,0.5560324788093567
1781544004143899,100267479,0.7796963453292847,0.0021725764963775873,0.017467983067035675,-0.6259103417396545,-0.2925194501876831,-0.191620334982872,10.294953346252441,0.4566679894924164,0.10777182877063751,0.6460098624229431
1781544004145721,100284146,0.7796968817710876,0.0021772312466055155,0.017468059435486794,-0.625909686088562,-0.28818151354789734,-0.17920374870300293,10.316621780395508,0.46084290742874146,0.15903565287590027,0.5912755727767944
1781544004174256,100300813,0.7797006368637085,0.0021823139395564795,0.017457054927945137,-0.6259053349494934,-0.29765796661376953,-0.18928496539592743,10.297614097595215,0.5103009939193726,0.10121499001979828,0.625148355960846
1781544004204104,100317480,0.7796943783760071,0.002185389632359147,0.017458638176321983,-0.6259130835533142,-0.27240651845932007,-0.19386962056159973,10.306276321411133,0.4455777108669281,0.16023944318294525,0.5640748739242554
1781544004205786,100334147,0.7796943187713623,0.002187507227063179,0.017457475885748863,-0.6259132027626038,-0.2896656394004822,-0.19638027250766754,10.313481330871582,0.4512765407562256,0.14094027876853943,0.6303477883338928
1781544004235258,100350814,0.7796930074691772,0.002177388174459338,0.017464496195316315,-0.6259146928787231,-0.2951980233192444,-0.19351930916309357,10.280633926391602,0.35065704584121704,0.13229599595069885,0.61646568775177
1781544004236914,100367481,0.7796889543533325,0.002174727851524949,0.01747593842446804,-0.6259194612503052,-0.28864285349845886,-0.19521084427833557,10.30390453338623,0.3734395503997803,0.18933548033237457,0.5416125655174255
1781544004264868,100384148,0.7796893119812012,0.002167831175029278,0.017474211752414703,-0.6259191036224365,-0.2930490970611572,-0.18755072355270386,10.304043769836426,0.4052761197090149,0.09923000633716583,0.6359825134277344
1781544004267083,100400815,0.7796870470046997,0.0021634805016219616,0.017472820356488228,-0.6259220242500305,-0.29644253849983215,-0.2067655771970749,10.30972957611084,0.41799283027648926,0.11231808364391327,0.6051960587501526
1781544004295836,100417482,0.7796847820281982,0.0021730149164795876,0.0174616239964962,-0.6259248852729797,-0.3034805357456207,-0.1928684413433075,10.302083969116211,0.5360673666000366,0.12046292424201965,0.5616161227226257
1781544004297654,100434149,0.7796812653541565,0.002173924120143056,0.0174572691321373,-0.6259293556213379,-0.28832852840423584,-0.18738625943660736,10.301468849182129,0.45928049087524414,0.11941280215978622,0.5892521739006042
1781544004325113,100450816,0.7796812057495117,0.0021657508332282305,0.017457948997616768,-0.6259296536445618,-0.28525975346565247,-0.19298644363880157,10.290164947509766,0.3897036015987396,0.10779744386672974,0.582003653049469
1781544004353935,100467483,0.7796781063079834,0.0021654970478266478,0.01744731329381466,-0.625933825969696,-0.2755686044692993,-0.19146667420864105,10.303500175476074,0.48133304715156555,0.08163407444953918,0.5491811037063599
1781544004355827,100484150,0.779685914516449,0.002168388571590185,0.017451470717787743,-0.6259238123893738,-0.29063880443573,-0.19753913581371307,10.293261528015137,0.43268170952796936,0.17346839606761932,0.6730952858924866
1781544004384121,100500817,0.7796822786331177,0.0021593004930764437,0.01745150238275528,-0.6259283423423767,-0.2905921936035156,-0.19812917709350586,10.288945198059082,0.38668128848075867,0.10013924539089203,0.5924409031867981
1781544004385915,100517484,0.7796734571456909,0.002158701652660966,0.017458271235227585,-0.6259391903877258,-0.2775348722934723,-0.18932069838047028,10.296795845031738,0.40422603487968445,0.17346839606761932,0.5314826965332031
1781544004413943,100534151,0.779680073261261,0.002167216967791319,0.017452115193009377,-0.6259311437606812,-0.28417423367500305,-0.2067284733057022,10.29786491394043,0.5075092315673828,0.1427331566810608,0.6578813791275024
1781544004415768,100550818,0.7796785831451416,0.0021630413830280304,0.01746021769940853,-0.6259327530860901,-0.28405848145484924,-0.19428478181362152,10.314568519592285,0.3780626058578491,0.16463202238082886,0.6146215200424194
1781544004443993,100567485,0.779678463935852,0.0021620725747197866,0.01745845191180706,-0.6259329915046692,-0.281404584646225,-0.19515006244182587,10.292807579040527,0.4374072551727295,0.12538056075572968,0.6325631737709045
1781544004445936,100584152,0.779678463935852,0.002159417374059558,0.017459366470575333,-0.6259329915046692,-0.2977621853351593,-0.18848399817943573,10.309146881103516,0.41831302642822266,0.13348698616027832,0.5844113826751709
1781544004474155,100600819,0.7796772122383118,0.002160195494070649,0.017451604828238487,-0.6259347796440125,-0.2940210998058319,-0.18778297305107117,10.288956642150879,0.47430238127708435,0.10191933065652847,0.5701578855514526
1781544004503931,100617486,0.7796778082847595,0.002156536327674985,0.01745888963341713,-0.625933825969696,-0.29516616463661194,-0.18374213576316833,10.315770149230957,0.3854006826877594,0.1633642017841339,0.5923512578010559
1781544004505598,100634153,0.779686689376831,0.0021720328368246555,0.01747623085975647,-0.6259222626686096,-0.2966974079608917,-0.1930255889892578,10.309321403503418,0.44340062141418457,0.29897060990333557,0.6867084503173828
1781544004533898,100650820,0.7796847224235535,0.002176248002797365,0.017463309690356255,-0.6259250640869141,-0.2928265929222107,-0.1903793066740036,10.303704261779785,0.5150265097618103,0.0893050879240036,0.5618978142738342
1781544004535621,100667487,0.7796784043312073,0.002172942738980055,0.017462285235524178,-0.6259328722953796,-0.2906852066516876,-0.1925753355026245,10.314868927001953,0.422718346118927,0.1203092485666275,0.5644206404685974
1781544004563919,100684154,0.7796682715415955,0.002194545231759548,0.01746249385178089,-0.6259453892707825,-0.2801779508590698,-0.187808096408844,10.283376693725586,0.5518192052841187,0.2347467988729477,0.5177415013313293
1781544004565655,100700821,0.7796627283096313,0.002198850968852639,0.017468690872192383,-0.6259521245956421,-0.29260170459747314,-0.19443482160568237,10.30868911743164,0.43243837356567383,0.19197358191013336,0.5686467289924622
1781544004594467,100717488,0.7796574831008911,0.002196414163336158,0.017463095486164093,-0.6259588599205017,-0.29196155071258545,-0.18829447031021118,10.305302619934082,0.4470504820346832,0.09975507110357285,0.5711952447891235
1781544004596085,100734155,0.7796545624732971,0.0021942572202533484,0.017464907839894295,-0.6259624361991882,-0.2754037380218506,-0.18681392073631287,10.28963565826416,0.4176086485385895,0.1413116604089737,0.5530613660812378
1781544004624520,100750822,0.7796478867530823,0.0021999443415552378,0.01745591126382351,-0.6259709596633911,-0.2875445485115051,-0.19035425782203674,10.296412467956543,0.5054473876953125,0.11677469313144684,0.556506335735321
1781544004654412,100767489,0.7796504497528076,0.002198725240305066,0.017454082146286964,-0.625967800617218,-0.2902378439903259,-0.18266551196575165,10.307262420654297,0.4374072551727295,0.12547020614147186,0.6127902269363403
1781544004655483,100784156,0.7796562910079956,0.00218985415995121,0.017446868121623993,-0.6259607672691345,-0.28108274936676025,-0.19594039022922516,10.292325019836426,0.41903018951416016,0.06341063976287842,0.6467782855033875
1781544004684268,100800823,0.7796561121940613,0.0021973280236124992,0.017450828105211258,-0.6259608864784241,-0.2877742052078247,-0.19334785640239716,10.290822982788086,0.45949819684028625,0.1943555623292923,0.5847058892250061
1781544004686232,100817490,0.779655396938324,0.0021902236621826887,0.017447222024202347,-0.6259618401527405,-0.2835613787174225,-0.1939449906349182,10.30154037475586,0.4140356779098511,0.09113636612892151,0.5760231614112854
1781544004714264,100834157,0.7796549797058105,0.0021991394460201263,0.017454171553254128,-0.6259621977806091,-0.2882029712200165,-0.19310446083545685,10.30592155456543,0.45442694425582886,0.21672825515270233,0.5827465653419495
1781544004716064,100850824,0.7796565890312195,0.0021939079742878675,0.017450416460633278,-0.6259602308273315,-0.30116671323776245,-0.18266908824443817,10.304454803466797,0.4243704378604889,0.09833355993032455,0.6017512083053589
1781544004743933,100867491,0.7796549797058105,0.002203713869675994,0.01745356060564518,-0.6259621977806091,-0.29783010482788086,-0.18677100539207458,10.306236267089844,0.47439202666282654,0.19954213500022888,0.6155051589012146
1781544004746026,100884158,0.7796541452407837,0.0022141023073345423,0.01745348423719406,-0.6259632706642151,-0.2890111804008484,-0.19327612221240997,10.309629440307617,0.4914884567260742,0.18490445613861084,0.6152874827384949
1781544004774264,100900825,0.7796525359153748,0.0022209519520401955,0.017443528398871422,-0.6259654760360718,-0.2897300124168396,-0.18289081752300262,10.329116821289062,0.5163456201553345,0.11756867170333862,0.5670843124389648
1781544004804092,100917492,0.7796455025672913,0.002229249570518732,0.017441119998693466,-0.6259742975234985,-0.29811978340148926,-0.1827799528837204,10.290522575378418,0.49111706018447876,0.164055734872818,0.5535480380058289
1781544004805937,100934159,0.779642641544342,0.002228920580819249,0.017451485618948936,-0.6259775161743164,-0.29631707072257996,-0.191484272480011,10.298418998718262,0.38925543427467346,0.1950727105140686,0.5977811217308044
1781544004833923,100950826,0.7796453833580017,0.0022179654333740473,0.017448710277676582,-0.625974178314209,-0.2917398512363434,-0.19362302124500275,10.316145896911621,0.38924258947372437,0.07917525619268417,0.613456130027771
1781544004835810,100967493,0.7796461582183838,0.0022200988605618477,0.01744970865547657,-0.6259732246398926,-0.2875771224498749,-0.19336552917957306,10.327400207519531,0.4421071708202362,0.15515533089637756,0.6386463046073914
1781544004863945,100984160,0.779646098613739,0.002225510310381651,0.017451638355851173,-0.6259732842445374,-0.29055967926979065,-0.19876202940940857,10.281989097595215,0.4561557471752167,0.17459537088871002,0.6197184324264526
1781544004865750,101000827,0.7796456813812256,0.0022320372518152,0.01746002770960331,-0.625973641872406,-0.290470689535141,-0.19232505559921265,10.31320571899414,0.43401357531547546,0.21391084790229797,0.6300146579742432
1781544004893931,101017494,0.7796406149864197,0.0022214732598513365,0.017462439835071564,-0.6259798407554626,-0.29906749725341797,-0.19400924444198608,10.301712036132812,0.36897012591362,0.10883475840091705,0.5749602913856506
1781544004895689,101034161,0.7796317338943481,0.0022147130221128464,0.017462458461523056,-0.6259908080101013,-0.29058828949928284,-0.19200657308101654,10.303056716918945,0.40062740445137024,0.11304806172847748,0.5224926471710205
1781544004924178,101050828,0.7796409130096436,0.002217608503997326,0.017464224249124527,-0.6259794235229492,-0.28231698274612427,-0.19679886102676392,10.321670532226562,0.442926824092865,0.1628391295671463,0.6869134306907654
1781544004954023,101067495,0.7796421647071838,0.002199597656726837,0.017462849617004395,-0.6259779930114746,-0.28563883900642395,-0.1957472860813141,10.29953384399414,0.3443947434425354,0.056072600185871124,0.6403878927230835
1781544004955795,101084162,0.7796356081962585,0.0021953736431896687,0.01746940426528454,-0.6259859800338745,-0.2883853614330292,-0.2019376903772354,10.30201244354248,0.3856695592403412,0.1589587926864624,0.5498085618019104
1781544004983953,101100829,0.7796313166618347,0.0022011995315551758,0.017472073435783386,-0.6259913444519043,-0.29768669605255127,-0.18434616923332214,10.292778968811035,0.45592522621154785,0.18117782473564148,0.5763817429542542
1781544004985704,101117496,0.7796281576156616,0.0021958923898637295,0.01746947132050991,-0.6259952187538147,-0.2920220196247101,-0.19020405411720276,10.288323402404785,0.41817212104797363,0.10463427752256393,0.6058619618415833
1781544005014084,101134163,0.7796264290809631,0.002186323283240199,0.017465898767113686,-0.6259975433349609,-0.2869298458099365,-0.1974388211965561,10.302165985107422,0.4010372459888458,0.08204387128353119,0.5619490742683411
1781544005015575,101150830,0.7796206474304199,0.0021807353477925062,0.017464620992541313,-0.6260048151016235,-0.294146329164505,-0.18947450816631317,10.294699668884277,0.4118458032608032,0.11113990098237991,0.5624868869781494
1781544005043955,101167497,0.7796012163162231,0.0022240118123590946,0.017618529498577118,-0.626024603843689,-0.2761722803115845,-0.18502211570739746,10.309454917907715,0.47971946001052856,0.1315148025751114,0.5298947095870972
1781544005045733,101184164,0.7796024680137634,0.002230739453807473,0.017616553232073784,-0.6260229349136353,-0.2804211378097534,-0.19822201132774353,10.286699295043945,0.48138427734375,0.15972717106342316,0.6011492609977722
1781544005074186,101200831,0.7796019911766052,0.0022408009972423315,0.017620880156755447,-0.6260233521461487,-0.28714799880981445,-0.19263955950737,10.32419204711914,0.47239425778388977,0.2081223875284195,0.5832076072692871
1781544005103948,101217498,0.7795990109443665,0.0022367555648088455,0.017613636329770088,-0.6260272860527039,-0.29291999340057373,-0.1785421520471573,10.29421615600586,0.4457570016384125,0.08492530882358551,0.5942594408988953
1781544005105925,101234165,0.7796038389205933,0.0022347879130393267,0.017610657960176468,-0.6260213255882263,-0.29132500290870667,-0.18540847301483154,10.29075813293457,0.43852147459983826,0.11677469313144684,0.6380187273025513
1781544005134026,101250832,0.7796022295951843,0.0022290972992777824,0.017609545961022377,-0.6260233521461487,-0.2872445583343506,-0.19757114350795746,10.303117752075195,0.4103090167045593,0.11070448905229568,0.6075780391693115
1781544005135437,101267499,0.7795979976654053,0.0022403837647289038,0.017600474879145622,-0.6260287761688232,-0.2924765348434448,-0.20703737437725067,10.284210205078125,0.5359392762184143,0.14138849079608917,0.5844753384590149
1781544005163927,101284166,0.7795931696891785,0.002241062233224511,0.01760638877749443,-0.6260349154472351,-0.2885674238204956,-0.20910783112049103,10.286216735839844,0.414957731962204,0.17634981870651245,0.5673404335975647
1781544005165830,101300833,0.7795912623405457,0.0022311846259981394,0.017619026824831963,-0.6260369420051575,-0.3006124198436737,-0.1850365400314331,10.2901611328125,0.32854050397872925,0.16645054519176483,0.6138659715652466
1781544005193904,101317500,0.7795935869216919,0.0022338407579809427,0.01762130670249462,-0.6260339617729187,-0.2942145764827728,-0.19110536575317383,10.30600357055664,0.44012221693992615,0.164785698056221,0.6450366377830505
1781544005195780,101334167,0.7795924544334412,0.002233783947303891,0.017620105296373367,-0.6260353922843933,-0.2832213044166565,-0.18767936527729034,10.303342819213867,0.4407497048377991,0.13462674617767334,0.6189500689506531
1781544005224181,101350834,0.7795915603637695,0.0022474091965705156,0.017625603824853897,-0.6260362863540649,-0.28605008125305176,-0.18987157940864563,10.308903694152832,0.48550787568092346,0.22967547178268433,0.6133792996406555
1781544005254712,101367501,0.7795917987823486,0.002250467427074909,0.017620781436562538,-0.6260361671447754,-0.29716137051582336,-0.1989193707704544,10.302881240844727,0.4729064702987671,0.12868458032608032,0.6303220987319946
1781544005255935,101384168,0.779582142829895,0.002253163605928421,0.017624877393245697,-0.6260480880737305,-0.28691554069519043,-0.20124390721321106,10.281749725341797,0.433962345123291,0.175799161195755,0.5325199961662292
1781544005296771,101400835,0.7795750498771667,0.0022608181461691856,0.017618676647543907,-0.6260569095611572,-0.2956092953681946,-0.18293730914592743,10.300134658813477,0.5048198699951172,0.14200319349765778,0.548579216003418
1781544005296994,101417502,0.7795711755752563,0.002266363939270377,0.01761624962091446,-0.6260618567466736,-0.28514888882637024,-0.18142814934253693,10.299637794494629,0.4767099618911743,0.15286298096179962,0.5835917592048645
1781544005314536,101434169,0.7795632481575012,0.0022780601866543293,0.01762007176876068,-0.626071572303772,-0.2882387340068817,-0.1791858673095703,10.316203117370605,0.4833436906337738,0.2132449448108673,0.543418288230896
1781544005315987,101450836,0.7795558571815491,0.0022796739358454943,0.017622070387005806,-0.6260807514190674,-0.2906884253025055,-0.18734319508075714,10.30310344696045,0.43836772441864014,0.1608925610780716,0.5049095153808594
1781544005344599,101467503,0.7795495390892029,0.002283009933307767,0.01762240007519722,-0.626088559627533,-0.28732359409332275,-0.1899861991405487,10.304004669189453,0.45315903425216675,0.1584465503692627,0.5634729266166687
1781544005346078,101484170,0.7795537710189819,0.0022925056982785463,0.01762421801686287,-0.6260833144187927,-0.28929728269577026,-0.18590198457241058,10.291841506958008,0.4795529842376709,0.192844420671463,0.629348874092102
1781544005374721,101500837,0.7795540690422058,0.002300624968484044,0.01762036606669426,-0.6260830760002136,-0.28988736867904663,-0.1895175278186798,10.29179573059082,0.4958297908306122,0.15612861514091492,0.6312441825866699
1781544005404204,101517504,0.7795498967170715,0.00229868502356112,0.017617104575037956,-0.6260881423950195,-0.2934742867946625,-0.1901254802942276,10.296523094177246,0.44041675329208374,0.11669784039258957,0.5727319121360779
1781544005406045,101534171,0.7795510292053223,0.002307828748598695,0.01762460358440876,-0.6260864734649658,-0.28499868512153625,-0.19405215978622437,10.315105438232422,0.4522882401943207,0.22140257060527802,0.6428595185279846
1781544005434280,101550838,0.779548704624176,0.002304826397448778,0.017621129751205444,-0.6260895133018494,-0.28313225507736206,-0.17968308925628662,10.287110328674316,0.43533262610435486,0.11089656502008438,0.5921207666397095
1781544005435500,101567505,0.7795414924621582,0.0023100916296243668,0.01763959601521492,-0.6260979175567627,-0.3025861978530884,-0.1762138158082962,10.302921295166016,0.38578489422798157,0.26458558440208435,0.5471704602241516
1781544005464211,101584172,0.7795409560203552,0.002309087198227644,0.017630456015467644,-0.6260987520217896,-0.27607962489128113,-0.17635709047317505,10.301350593566895,0.470024973154068,0.0889977291226387,0.6138787269592285
1781544005465524,101600839,0.7795353531837463,0.0023000570945441723,0.017632249742746353,-0.6261059045791626,-0.2916790544986725,-0.20007449388504028,10.320051193237305,0.3807007074356079,0.11361152678728104,0.5593237280845642
1781544005493939,101617506,0.7795314192771912,0.002304959809407592,0.01763850823044777,-0.6261106133460999,-0.2760152518749237,-0.18298737704753876,10.319822311401367,0.435832142829895,0.19739067554473877,0.5826057195663452
1781544005496090,101634173,0.7795270085334778,0.002310609444975853,0.017640823498368263,-0.6261160969734192,-0.2889253497123718,-0.1983078420162201,10.316986083984375,0.45793581008911133,0.18025575578212738,0.542688250541687
1781544005524503,101650840,0.7795248031616211,0.0023133812937885523,0.017640259116888046,-0.6261187195777893,-0.28216275572776794,-0.1799619048833847,10.308170318603516,0.45472145080566406,0.15236353874206543,0.5615776181221008
1781544005554227,101667507,0.7795271873474121,0.0023018061183393,0.017638614401221275,-0.6261158585548401,-0.28328895568847656,-0.2072339653968811,10.288030624389648,0.3817124664783478,0.08441305160522461,0.6096782684326172
1781544005555865,101684174,0.7795177698135376,0.0023059200029820204,0.017643442377448082,-0.6261274814605713,-0.28655076026916504,-0.18559442460536957,10.302770614624023,0.4386751055717468,0.18718400597572327,0.523209810256958
1781544005584263,101700841,0.7795111536979675,0.0023032003082334995,0.017642952501773834,-0.6261357665061951,-0.2858462631702423,-0.18057700991630554,10.301193237304688,0.42480581998825073,0.12923528254032135,0.5409337878227234
1781544005586117,101717508,0.7795037031173706,0.0023007369600236416,0.017643887549638748,-0.6261449456214905,-0.2868797779083252,-0.1846395879983902,10.300939559936523,0.4199650287628174,0.13799481093883514,0.5394994616508484
1781544005614259,101734175,0.7795029878616333,0.002307085320353508,0.017648059874773026,-0.6261457204818726,-0.2951694130897522,-0.1871393471956253,10.279979705810547,0.4521089494228363,0.19263949990272522,0.6146727204322815
1781544005615517,101750842,0.7795009016990662,0.0023010424338281155,0.017649643123149872,-0.6261482834815979,-0.2935815751552582,-0.18474328517913818,10.305621147155762,0.3972081243991852,0.12566229701042175,0.5942978858947754
1781544005644262,101767509,0.7795088291168213,0.0023124420549720526,0.017639951780438423,-0.6261385679244995,-0.2846285402774811,-0.17860634624958038,10.293244361877441,0.5384621620178223,0.1398901641368866,0.6768732070922852
1781544005645584,101784176,0.7795155644416809,0.0023063798435032368,0.017632653936743736,-0.6261304616928101,-0.3005623519420624,-0.19393771886825562,10.300191879272461,0.4348588287830353,0.07781779021024704,0.6574332118034363
1781544005674493,101800843,0.7795145511627197,0.002310538664460182,0.017627354711294174,-0.6261319518089294,-0.2915860712528229,-0.18963196873664856,10.293190002441406,0.48133304715156555,0.13278262317180634,0.6051960587501526
1781544005704224,101817510,0.7795125842094421,0.0023076001089066267,0.017630673944950104,-0.6261341571807861,-0.2850419580936432,-0.19069428741931915,10.294334411621094,0.4062366187572479,0.1484576016664505,0.5992155075073242
1781544005705877,101834177,0.7795080542564392,0.002312559401616454,0.017638074234128,-0.6261395812034607,-0.2968141436576843,-0.18538326025009155,10.320273399353027,0.43124738335609436,0.2045622169971466,0.5785332322120667
1781544005734275,101850844,0.779502272605896,0.0023223524913191795,0.01764080859720707,-0.6261467337608337,-0.28478410840034485,-0.1905689388513565,10.286928176879883,0.47722217440605164,0.20038732886314392,0.571630597114563
1781544005736016,101867511,0.7795026898384094,0.0023299206513911486,0.01764138974249363,-0.6261463165283203,-0.29620295763015747,-0.19600476324558258,10.303110122680664,0.4737517535686493,0.17884708940982819,0.6313210725784302
1781544005764321,101884178,0.7795048952102661,0.002338490216061473,0.01764020323753357,-0.6261434555053711,-0.2850523293018341,-0.18793684244155884,10.31881332397461,0.4878130257129669,0.17433921992778778,0.6085768342018127
1781544005765919,101900845,0.7795013189315796,0.002332354197278619,0.017630422487854958,-0.6261481642723083,-0.2929486036300659,-0.198368638753891,10.309708595275879,0.4457826018333435,0.06488336622714996,0.5809152126312256
1781544005794357,101917512,0.7794888019561768,0.0023249562364071608,0.01762811467051506,-0.6261638402938843,-0.29423603415489197,-0.19553986191749573,10.298086166381836,0.4084136486053467,0.1005106270313263,0.4812946319580078
1781544005795811,101934179,0.7794904708862305,0.0023346003144979477,0.017621442675590515,-0.6261619329452515,-0.3011309504508972,-0.19028283655643463,10.279479026794434,0.5163456201553345,0.14921319484710693,0.6329602003097534
1781544005824505,101950846,0.779488742351532,0.0023365591187030077,0.017621058970689774,-0.6261640787124634,-0.2945261001586914,-0.1968274861574173,10.30042839050293,0.4484206438064575,0.1500968039035797,0.6019560694694519
1781544005854219,101967513,0.7794904708862305,0.002338958438485861,0.017613086849451065,-0.6261621117591858,-0.29385337233543396,-0.20002442598342896,10.306618690490723,0.48400962352752686,0.11161375045776367,0.6052089333534241
1781544005855687,101984180,0.7794920802116394,0.0023330706171691418,0.017608320340514183,-0.626160204410553,-0.2878703773021698,-0.18426407873630524,10.289055824279785,0.4246906042098999,0.09253228455781937,0.6384925842285156
1781544005884243,102000847,0.7794952392578125,0.002336628967896104,0.017604686319828033,-0.6261565089225769,-0.256002813577652,-0.18045184016227722,10.297348976135254,0.4703068137168884,0.13922424614429474,0.6528997421264648
1781544005885884,102017514,0.7794889211654663,0.002341350307688117,0.017603576183319092,-0.6261643171310425,-0.2861577272415161,-0.18344886600971222,10.294759750366211,0.4671051800251007,0.15877953171730042,0.5535480976104736
1781544005914247,102034181,0.779486894607544,0.002339184284210205,0.01760220341384411,-0.6261669397354126,-0.28868576884269714,-0.1886485069990158,10.280762672424316,0.4304918348789215,0.1272374987602234,0.6038642525672913
1781544005915877,102050848,0.7794850468635559,0.0023261364549398422,0.017606042325496674,-0.6261692643165588,-0.29845237731933594,-0.18423904478549957,10.299838066101074,0.34983745217323303,0.10845056176185608,0.6001631021499634
1781544005944273,102067515,0.7794861197471619,0.002328182104974985,0.017619077116250992,-0.626167356967926,-0.29848814010620117,-0.18850545585155487,10.296966552734375,0.3905232548713684,0.22245268523693085,0.6386846303939819
1781544005945500,102084182,0.7794892191886902,0.0023396804463118315,0.017612073570489883,-0.62616366147995,-0.29289889335632324,-0.17325790226459503,10.29482364654541,0.5273846983909607,0.15566757321357727,0.652054488658905
1781544005974477,102100849,0.7794916033744812,0.0023379679769277573,0.0176073107868433,-0.626160740852356,-0.29301655292510986,-0.18734677135944366,10.286145210266113,0.447908490896225,0.11149848997592926,0.6141220927238464
1781544006004221,102117516,0.7794865369796753,0.0023374133743345737,0.017611026763916016,-0.6261670589447021,-0.28168028593063354,-0.1868319809436798,10.294327735900879,0.4180311858654022,0.16219879686832428,0.5598230957984924
1781544006005897,102134183,0.7794820666313171,0.002333536744117737,0.017619328573346138,-0.6261724233627319,-0.2964175045490265,-0.18180006742477417,10.295235633850098,0.3801884949207306,0.17236705124378204,0.5718610882759094
1781544006034319,102150850,0.7794769406318665,0.002343965694308281,0.01762067712843418,-0.6261788010597229,-0.2849840223789215,-0.18824422359466553,10.306193351745605,0.48695507645606995,0.19682718813419342,0.5643053650856018
1781544006035612,102167517,0.7794787883758545,0.002342965453863144,0.017613647505640984,-0.6261767148971558,-0.30340585112571716,-0.19227850437164307,10.316965103149414,0.4616113007068634,0.10264929383993149,0.6064255237579346
1781544006064407,102184184,0.77947998046875,0.0023395658936351538,0.017606843262910843,-0.6261754035949707,-0.2980482578277588,-0.18193596601486206,10.297720909118652,0.4479084312915802,0.09363362193107605,0.5989977717399597
1781544006066214,102200851,0.779478907585144,0.0023395700845867395,0.017604684457182884,-0.6261767745018005,-0.29743674397468567,-0.19027568399906158,10.295950889587402,0.44653818011283875,0.1334613710641861,0.5735130906105042
1781544006094288,102217518,0.7794811725616455,0.0023346361704170704,0.017606519162654877,-0.6261739134788513,-0.3101644515991211,-0.18845540285110474,10.28244686126709,0.4012421667575836,0.13268019258975983,0.6450622081756592
1781544006095937,102234185,0.7794740200042725,0.002341103507205844,0.017609087750315666,-0.6261827945709229,-0.2839755415916443,-0.17650355398654938,10.289210319519043,0.4609069228172302,0.186722993850708,0.5384237766265869
1781544006124500,102250852,0.7794705629348755,0.0023369821719825268,0.017597965896129608,-0.6261874437332153,-0.29582029581069946,-0.19705259799957275,10.296944618225098,0.463481068611145,0.06800811737775803,0.5443787574768066
1781544006154213,102267519,0.7794665098190308,0.0023425528779625893,0.017595672979950905,-0.6261923909187317,-0.28685474395751953,-0.19266459345817566,10.29978084564209,0.47642815113067627,0.15653841197490692,0.5758439302444458
1781544006156020,102284186,0.7794691920280457,0.0023285076022148132,0.017599625512957573,-0.6261890530586243,-0.2887251079082489,-0.19461362063884735,10.2938232421875,0.34321656823158264,0.10489040613174438,0.6489040851593018
1781544006184297,102300853,0.7794662714004517,0.002326867077499628,0.01758982241153717,-0.6261929869651794,-0.27933716773986816,-0.18547990918159485,10.310725212097168,0.46992263197898865,0.08520705252885818,0.5869854688644409
1781544006185796,102317520,0.7794619202613831,0.002330117393285036,0.01758897490799427,-0.6261983513832092,-0.2901845872402191,-0.18846988677978516,10.309737205505371,0.45784619450569153,0.15451501309871674,0.5711695551872253
1781544006214311,102334187,0.7794564366340637,0.0023303087800741196,0.01759711652994156,-0.6262049674987793,-0.28854987025260925,-0.18800121545791626,10.296154975891113,0.4029325544834137,0.18969403207302094,0.5590675473213196
1781544006216080,102350854,0.7794607877731323,0.0023276309948414564,0.017601378262043,-0.6261994242668152,-0.28705859184265137,-0.18515455722808838,10.311535835266113,0.40257400274276733,0.15556512773036957,0.6671531796455383
1781544006244525,102367521,0.7794523239135742,0.0023295071441680193,0.01760946214199066,-0.6262097358703613,-0.2850630581378937,-0.19805751740932465,10.2898530960083,0.41276782751083374,0.19707050919532776,0.5244776606559753
1781544006246005,102384188,0.7794474959373474,0.0023287225048989058,0.017602186650037766,-0.626215934753418,-0.2937961518764496,-0.18263332545757294,10.325536727905273,0.46396759152412415,0.10289261490106583,0.5663672089576721
1781544006274556,102400855,0.7794463634490967,0.002318775514140725,0.017595283687114716,-0.6262174844741821,-0.30635616183280945,-0.18296602368354797,10.32797908782959,0.41280627250671387,0.0652291402220726,0.6000351309776306
1781544006304352,102417522,0.7794508337974548,0.0023153971415013075,0.01758423261344433,-0.6262123584747314,-0.28959813714027405,-0.18913494050502777,10.317769050598145,0.4657605290412903,0.07115847617387772,0.6351116299629211
1781544006305984,102434189,0.7794483304023743,0.002314092358574271,0.017591532319784164,-0.6262152791023254,-0.2886821925640106,-0.18152828514575958,10.32713508605957,0.39791250228881836,0.17860376834869385,0.5957833528518677
1781544006334398,102450856,0.7794535160064697,0.002314954064786434,0.017594730481505394,-0.6262087225914001,-0.29094234108924866,-0.18095967173576355,10.289163589477539,0.4259071350097656,0.1651955097913742,0.6792039275169373
1781544006335996,102467523,0.7794467806816101,0.0023180313874036074,0.017587093636393547,-0.6262173652648926,-0.2917005121707916,-0.1882229447364807,10.303199768066406,0.4863787293434143,0.11790166050195694,0.5495012402534485
1781544006364377,102484190,0.7794428467750549,0.0023221613373607397,0.017578771337866783,-0.6262224912643433,-0.3008233904838562,-0.17619973421096802,10.290350914001465,0.49471569061279297,0.1186700314283371,0.572616696357727
1781544006366179,102500857,0.7794451117515564,0.002323359251022339,0.017569512128829956,-0.6262199282646179,-0.28693699836730957,-0.19432395696640015,10.311944007873535,0.4816787540912628,0.10020327568054199,0.6502103805541992
1781544006394326,102517524,0.7794458270072937,0.002317167120054364,0.017571501433849335,-0.6262187957763672,-0.29411405324935913,-0.19132694602012634,10.2775297164917,0.3942626714706421,0.12914565205574036,0.622420608997345
1781544006395594,102534191,0.779444694519043,0.0023216395638883114,0.017574572935700417,-0.6262203454971313,-0.28817036747932434,-0.18938860297203064,10.286026954650879,0.4467815160751343,0.18085765838623047,0.6122907400131226
1781544006424462,102550858,0.7794417142868042,0.0023232074454426765,0.017578931525349617,-0.6262239217758179,-0.2932060956954956,-0.18657788634300232,10.30444049835205,0.42620164155960083,0.17563265562057495,0.5848339200019836
1781544006454192,102567525,0.7794387340545654,0.0023190341889858246,0.017572937533259392,-0.6262277960777283,-0.2892722487449646,-0.17582422494888306,10.29617977142334,0.4401862621307373,0.09556738287210464,0.5778160691261292
1781544006456082,102584192,0.7794297337532043,0.002316379453986883,0.017572112381458282,-0.6262390613555908,-0.28396159410476685,-0.20137622952461243,10.298951148986816,0.42676523327827454,0.13028539717197418,0.5210967659950256
1781544006485014,102600859,0.7794293165206909,0.002315304009243846,0.0175627414137125,-0.6262397766113281,-0.2933562695980072,-0.18257610499858856,10.296737670898438,0.47080621123313904,0.09058570861816406,0.6092684268951416
1781544006486353,102617526,0.7794281244277954,0.0023147878237068653,0.01756122335791588,-0.6262412071228027,-0.2924693822860718,-0.19026853144168854,10.30161190032959,0.4408905804157257,0.13562564551830292,0.5773166418075562
1781544006514697,102634193,0.7794287204742432,0.0023154341615736485,0.017553014680743217,-0.6262407302856445,-0.295065701007843,-0.18751128017902374,10.304519653320312,0.47478896379470825,0.10414764285087585,0.6227279901504517
1781544006516015,102650860,0.7794265151023865,0.002312419470399618,0.017542501911520958,-0.6262437701225281,-0.2890509068965912,-0.17391106486320496,10.315927505493164,0.46559399366378784,0.07635785639286041,0.5912627577781677
1781544006543979,102667527,0.779419481754303,0.0023040310479700565,0.017545586451888084,-0.6262524127960205,-0.2816939949989319,-0.18870918452739716,10.309101104736328,0.3789462745189667,0.12657155096530914,0.5414972305297852
1781544006545532,102684194,0.7794153094291687,0.0023111249320209026,0.017540983855724335,-0.6262577176094055,-0.30072370171546936,-0.19797185063362122,10.307945251464844,0.4945620000362396,0.15185128152370453,0.5720531344413757
1781544006574192,102700861,0.7794183492660522,0.0023238747380673885,0.017537841573357582,-0.6262540221214294,-0.28109079599380493,-0.1938953399658203,10.293547630310059,0.5176903009414673,0.18347018957138062,0.6436920166015625
1781544006604659,102717528,0.779417097568512,0.0023350392002612352,0.01753978244960308,-0.626255452632904,-0.2761766314506531,-0.1918136477470398,10.309815406799316,0.48786425590515137,0.20429326593875885,0.6017767190933228
1781544006605532,102734195,0.7794113755226135,0.002339433878660202,0.01753918267786503,-0.6262626051902771,-0.28176578879356384,-0.18621312081813812,10.306782722473145,0.4633401334285736,0.16205793619155884,0.5494627952575684
1781544006634698,102750862,0.7794139385223389,0.002338073682039976,0.01752978004515171,-0.6262596249580383,-0.2886464297771454,-0.19316525757312775,10.299966812133789,0.4690261483192444,0.08934349566698074,0.6392993927001953
1781544006635469,102767529,0.7794098854064941,0.002341474639251828,0.017518358305096626,-0.6262649893760681,-0.2836325764656067,-0.17484793066978455,10.302680969238281,0.5041283965110779,0.09952454268932343,0.5758183598518372
1781544006663951,102784196,0.7794055342674255,0.0023407279513776302,0.01751289889216423,-0.626270592212677,-0.2900558114051819,-0.19144882261753082,10.315262794494629,0.456488698720932,0.1138804629445076,0.5633705258369446
1781544006665846,102800863,0.7794031500816345,0.002338211517781019,0.017509015277028084,-0.6262736320495605,-0.28280648589134216,-0.1765323132276535,10.302245140075684,0.4397508203983307,0.11444394290447235,0.5895467400550842
1781544006694319,102817530,0.7794011235237122,0.0023368154652416706,0.01750287599861622,-0.6262763738632202,-0.2842941880226135,-0.18475759029388428,10.307523727416992,0.455489844083786,0.10727238655090332,0.5893929600715637
1781544006696263,102834197,0.7793970704078674,0.0023453030735254288,0.01749189756810665,-0.6262816786766052,-0.29757264256477356,-0.17824174463748932,10.293855667114258,0.5298947095870972,0.1242920383810997,0.5599640607833862
1781544006724188,102850864,0.7793938517570496,0.002338255988433957,0.01749548502266407,-0.62628573179245,-0.2836611866950989,-0.19528594613075256,10.302699089050293,0.3832619786262512,0.1351005733013153,0.5856279730796814
1781544006753941,102867531,0.7793896198272705,0.0023357735481113195,0.017487095668911934,-0.6262911558151245,-0.29099565744400024,-0.1830015927553177,10.305134773254395,0.460471510887146,0.09132847934961319,0.5418685674667358
1781544006755641,102884198,0.7793906331062317,0.0023348568938672543,0.017480600625276566,-0.6262900829315186,-0.29577067494392395,-0.19407731294631958,10.276074409484863,0.4588322043418884,0.10711870342493057,0.6311288475990295
1781544006783931,102900865,0.7793886661529541,0.002342249732464552,0.017478350549936295,-0.6262925863265991,-0.28894364833831787,-0.19654139876365662,10.31533432006836,0.4856615662574768,0.16605351865291595,0.5974866151809692
1781544006785806,102917532,0.7793845534324646,0.0023510651662945747,0.01747332140803337,-0.6262977719306946,-0.30350199341773987,-0.20331454277038574,10.301444053649902,0.5056010484695435,0.15749889612197876,0.5754981637001038
1781544006813934,102934199,0.7793881297111511,0.002352527342736721,0.017465811222791672,-0.6262935996055603,-0.28323203325271606,-0.19786082208156586,10.300704002380371,0.4766843616962433,0.11240774393081665,0.6247129440307617
1781544006815485,102950866,0.7793856859207153,0.0023555420339107513,0.017453067004680634,-0.6262969970703125,-0.2799276113510132,-0.1978679746389389,10.29519271850586,0.5077269077301025,0.09120041877031326,0.5850772857666016
1781544006843957,102967533,0.7793874144554138,0.002364332787692547,0.017449015751481056,-0.6262949705123901,-0.28225216269493103,-0.1829158514738083,10.316828727722168,0.5003889203071594,0.16219882667064667,0.6384669542312622
1781544006845683,102984200,0.7793855667114258,0.0023687377106398344,0.017443910241127014,-0.6262974143028259,-0.29183998703956604,-0.19302578270435333,10.299466133117676,0.4821142852306366,0.13808445632457733,0.5953735709190369
1781544006874190,103000867,0.7793790102005005,0.00236842455342412,0.017447618767619133,-0.6263052821159363,-0.29209062457084656,-0.18857359886169434,10.304362297058105,0.4194207489490509,0.16538119316101074,0.5516078472137451
1781544006903943,103017534,0.7793792486190796,0.002365667372941971,0.017451301217079163,-0.6263049244880676,-0.29056286811828613,-0.20464472472667694,10.305889129638672,0.4056987166404724,0.1542588770389557,0.6144678592681885
1781544006905914,103034201,0.7793701887130737,0.0023640107829123735,0.01745351031422615,-0.6263160705566406,-0.27734559774398804,-0.1889989823102951,10.291215896606445,0.419171005487442,0.15187689661979675,0.5230305194854736
1781544006933958,103050868,0.7793753743171692,0.0023649020586162806,0.017445940524339676,-0.6263098120689392,-0.2862539291381836,-0.18959620594978333,10.287382125854492,0.4728296101093292,0.10923175513744354,0.670457124710083
1781544006935492,103067535,0.7793682813644409,0.0023630745708942413,0.0174420066177845,-0.6263187527656555,-0.29667142033576965,-0.17557747662067413,10.29127311706543,0.4446812570095062,0.11828584223985672,0.5353374481201172
1781544006963950,103084202,0.7793684005737305,0.002357116900384426,0.017449552193284035,-0.6263185143470764,-0.28341442346572876,-0.18412460386753082,10.31692886352539,0.3718515634536743,0.16132798790931702,0.614506185054779
1781544006965662,103100869,0.779371976852417,0.002353278687223792,0.017441244795918465,-0.6263144016265869,-0.2780250906944275,-0.18431414663791656,10.309308052062988,0.4511868953704834,0.0853223130106926,0.6452415585517883
1781544006993950,103117536,0.7793717980384827,0.0023519026581197977,0.01743835210800171,-0.6263146996498108,-0.2781613767147064,-0.18151412904262543,10.288093566894531,0.441518098115921,0.12526531517505646,0.6087306141853333
1781544006995635,103134203,0.7793661952018738,0.002361561870202422,0.017432264983654022,-0.6263218522071838,-0.2888037860393524,-0.1901862770318985,10.289570808410645,0.5151161551475525,0.15615423023700714,0.5556995272636414
1781544007024632,103150870,0.7793697118759155,0.0023592188954353333,0.017437424510717392,-0.6263173222541809,-0.28809210658073425,-0.19527879357337952,10.325404167175293,0.4010244607925415,0.16397890448570251,0.6510427594184875
1781544007054299,103167537,0.7793386578559875,0.0022578465286642313,0.017584258690476418,-0.6263521313667297,-0.2877666652202606,-0.18608079850673676,10.324453353881836,0.47687649726867676,0.18510939180850983,0.6218315362930298
1781544007056275,103184204,0.7793388962745667,0.0022501356434077024,0.017572766169905663,-0.6263521909713745,-0.28464820981025696,-0.18471111357212067,10.305170059204102,0.44561612606048584,0.05169282853603363,0.6148008108139038
1781544007084181,103200871,0.7793371081352234,0.002251706086099148,0.017565840855240822,-0.6263545751571655,-0.2825668752193451,-0.18379560112953186,10.294416427612305,0.476722776889801,0.11680031567811966,0.5710158944129944
1781544007086204,103217538,0.7793343663215637,0.0022604858968406916,0.017557507380843163,-0.626358151435852,-0.29279839992523193,-0.19552555680274963,10.284696578979492,0.5207509398460388,0.13997980952262878,0.5864347815513611
1781544007114087,103234205,0.7793329358100891,0.0022791677620261908,0.017563648521900177,-0.6263597011566162,-0.27957358956336975,-0.18784743547439575,10.303324699401855,0.5124268531799316,0.2607693076133728,0.566764235496521
1781544007116024,103250872,0.7793276906013489,0.002274882746860385,0.017550315707921982,-0.6263665556907654,-0.28842827677726746,-0.19940216839313507,10.299927711486816,0.47275277972221375,0.05725078657269478,0.5569160580635071
1781544007145596,103267539,0.7793173789978027,0.0022641196846961975,0.017554471269249916,-0.6263793110847473,-0.2885105311870575,-0.20601457357406616,10.295503616333008,0.3635530471801758,0.12363889813423157,0.5019640326499939
1781544007146610,103284206,0.7793174386024475,0.0022726752795279026,0.01754596084356308,-0.6263795495033264,-0.2788797914981842,-0.1921853870153427,10.291566848754883,0.519982635974884,0.13790518045425415,0.6173493266105652
1781544007174264,103300873,0.7793177962303162,0.0022735954262316227,0.017522763460874557,-0.626379668712616,-0.28246673941612244,-0.18051621317863464,10.296069145202637,0.5425857901573181,0.026502739638090134,0.6100753545761108
1781544007204576,103317540,0.779309093952179,0.002279543550685048,0.017523357644677162,-0.6263905167579651,-0.28463390469551086,-0.19451706111431122,10.30325698852539,0.4683089852333069,0.17652912437915802,0.5182409286499023
1781544007205712,103334207,0.7793142199516296,0.0022778010461479425,0.017525527626276016,-0.6263841390609741,-0.2950800061225891,-0.20500965416431427,10.286770820617676,0.4187484383583069,0.1509036123752594,0.646458089351654
1781544007234289,103350874,0.7793141603469849,0.0022791472729295492,0.01752385124564171,-0.6263842582702637,-0.29382798075675964,-0.18375253677368164,10.304359436035156,0.45199376344680786,0.1436680555343628,0.6148392558097839
1781544007235867,103367541,0.7793128490447998,0.0022742855362594128,0.017517605796456337,-0.6263859868049622,-0.28620028495788574,-0.20045356452465057,10.294180870056152,0.4385214149951935,0.09254508465528488,0.6027628183364868
1781544007264289,103384208,0.779309868812561,0.0022910067345947027,0.017511652782559395,-0.6263898015022278,-0.28727006912231445,-0.18819096684455872,10.280987739562988,0.5532279014587402,0.18724802136421204,0.5867804884910583
1781544007266117,103400875,0.7793017625808716,0.002294839359819889,0.017509445548057556,-0.6263999342918396,-0.2941823899745941,-0.1945277899503708,10.30532455444336,0.4690517783164978,0.15245318412780762,0.5250667333602905
1781544007293918,103417542,0.7792970538139343,0.0022961124777793884,0.01750701665878296,-0.6264058947563171,-0.28085029125213623,-0.18586622178554535,10.291945457458496,0.4557075500488281,0.13994137942790985,0.5613983273506165
1781544007295724,103434209,0.7792904376983643,0.002302119741216302,0.0175052247941494,-0.6264141201972961,-0.293106347322464,-0.1931690126657486,10.292864799499512,0.4786309599876404,0.16394050419330597,0.5427907705307007
1781544007324487,103450876,0.7793022990226746,0.002306506037712097,0.017493441700935364,-0.6263998746871948,-0.297256201505661,-0.188722625374794,10.288758277893066,0.5107876658439636,0.10202178359031677,0.7165088653564453
1781544007354293,103467543,0.7793036103248596,0.002294749254360795,0.017477693036198616,-0.6263987421989441,-0.2927590608596802,-0.2019949108362198,10.31620979309082,0.44245296716690063,0.011941920965909958,0.6226767301559448
1781544007355803,103484210,0.7792961597442627,0.0022959355264902115,0.017479246482253075,-0.62640780210495,-0.2902059853076935,-0.19016140699386597,10.294130325317383,0.43866223096847534,0.16126395761966705,0.5318155884742737
1781544007383944,103500877,0.7793017029762268,0.002289011375978589,0.017483938485383987,-0.6264007091522217,-0.30068036913871765,-0.1741720288991928,10.297982215881348,0.3795225918292999,0.1418367326259613,0.6741198897361755
1781544007385515,103517544,0.779301106929779,0.0022980605717748404,0.017486944794654846,-0.6264015436172485,-0.28006306290626526,-0.1768074929714203,10.317525863647461,0.47349557280540466,0.20229549705982208,0.6048374176025391
1781544007414242,103534211,0.7793028950691223,0.002279550302773714,0.017495455220341682,-0.6263991594314575,-0.2964031994342804,-0.18830519914627075,10.293665885925293,0.3016856014728546,0.11291998624801636,0.6279913187026978
1781544007415619,103550878,0.7793029546737671,0.002281263004988432,0.017493145540356636,-0.6263991594314575,-0.28973716497421265,-0.19226762652397156,10.288397789001465,0.4567960202693939,0.1421440690755844,0.615236222743988
1781544007444089,103567545,0.7792980670928955,0.00228157383389771,0.01749894581735134,-0.6264050602912903,-0.2908562123775482,-0.19185620546340942,10.283427238464355,0.41511139273643494,0.18003806471824646,0.563613772392273
1781544007445551,103584212,0.7792931199073792,0.0022832106333225965,0.017492981627583504,-0.6264113783836365,-0.2939467430114746,-0.18541935086250305,10.31017017364502,0.4728679955005646,0.12269122153520584,0.5633320808410645
1781544007474301,103600879,0.7792972922325134,0.002285657450556755,0.0175012294203043,-0.6264058351516724,-0.2911962568759918,-0.19423454999923706,10.284929275512695,0.41472724080085754,0.20157834887504578,0.6576893329620361
1781544007504748,103617546,0.7792958617210388,0.002287446055561304,0.017486682161688805,-0.6264079809188843,-0.29584890604019165,-0.18039819598197937,10.279614448547363,0.5104290843009949,0.07725431025028229,0.5911731123924255
1781544007505824,103634213,0.7792988419532776,0.002283517038449645,0.017491141334176064,-0.6264041066169739,-0.28399378061294556,-0.19698822498321533,10.276739120483398,0.39696478843688965,0.1539515256881714,0.6459202170372009
1781544007534076,103650880,0.7792980670928955,0.002280839718878269,0.01748795248568058,-0.6264051795005798,-0.28750598430633545,-0.18711090087890625,10.302309036254883,0.437215119600296,0.11869563162326813,0.60587477684021
1781544007536091,103667547,0.7792994379997253,0.002280648099258542,0.017477992922067642,-0.6264039278030396,-0.2839508652687073,-0.17849566042423248,10.300042152404785,0.47942495346069336,0.0929676964879036,0.6273766160011292
1781544007564003,103684214,0.7792993783950806,0.0022918572649359703,0.017475556582212448,-0.6264040470123291,-0.28278860449790955,-0.19022919237613678,10.28675651550293,0.5084312558174133,0.18265056610107422,0.6113430857658386
1781544007565690,103700881,0.7792980074882507,0.002288342686370015,0.017469268292188644,-0.6264058947563171,-0.2900483012199402,-0.19839009642601013,10.294377326965332,0.4462948739528656,0.09873054921627045,0.5966029763221741
1781544007593960,103717548,0.779299795627594,0.0022906349040567875,0.01745997928082943,-0.6264039874076843,-0.3002261817455292,-0.17938613891601562,10.311821937561035,0.4899389147758484,0.10740043967962265,0.6281834244728088
1781544007596071,103734215,0.7792987823486328,0.0022937506437301636,0.01746010221540928,-0.6264052391052246,-0.3027116358280182,-0.18630966544151306,10.31069564819336,0.4542475938796997,0.16167376935482025,0.5986007452011108
1781544007625976,103750882,0.7792927622795105,0.002291041426360607,0.01745583303272724,-0.6264128088951111,-0.28774845600128174,-0.17560240626335144,10.290669441223145,0.442632257938385,0.1134706437587738,0.5483230352401733
1781544007653973,103767549,0.7792907357215881,0.0022970749996602535,0.017440248280763626,-0.6264157295227051,-0.2949691414833069,-0.18092390894889832,10.292671203613281,0.5375401377677917,0.09013748914003372,0.5913907885551453
1781544007655621,103784216,0.7792917490005493,0.0023041449021548033,0.017435681074857712,-0.6264145970344543,-0.2972114384174347,-0.1930686980485916,10.303836822509766,0.4952535033226013,0.15337523818016052,0.6228560209274292
1781544007685973,103800883,0.7792854309082031,0.002310012700036168,0.01742914319038391,-0.6264225840568542,-0.289630264043808,-0.17625710368156433,10.282057762145996,0.49846795201301575,0.13839180767536163,0.5426114797592163
1781544007687447,103817550,0.7792774438858032,0.0023077342193573713,0.017428448423743248,-0.6264325976371765,-0.29389986395835876,-0.1837884485721588,10.296151161193848,0.42987707257270813,0.1347675919532776,0.5258734822273254
1781544007713952,103834217,0.779273271560669,0.002304529305547476,0.01742655038833618,-0.6264378428459167,-0.28875765204429626,-0.1988980770111084,10.293643951416016,0.42950570583343506,0.1239718571305275,0.565176248550415
1781544007715543,103850884,0.7792738676071167,0.00230281800031662,0.0174210574477911,-0.6264373064041138,-0.2956092953681946,-0.20093278586864471,10.297438621520996,0.45223701000213623,0.11069168150424957,0.6182713508605957
1781544007743958,103867551,0.7792732119560242,0.0022964223753660917,0.017416376620531082,-0.6264380216598511,-0.2877165973186493,-0.1806020438671112,10.301039695739746,0.42401182651519775,0.09506793320178986,0.6004448533058167
1781544007745525,103884218,0.7792753577232361,0.002287262352183461,0.017411934211850166,-0.6264355182647705,-0.284040629863739,-0.18003712594509125,10.301197052001953,0.40781185030937195,0.08425938338041306,0.6269924640655518
1781544007774193,103900885,0.7792726755142212,0.002286473521962762,0.01740812323987484,-0.6264391541481018,-0.294782817363739,-0.18644186854362488,10.339259147644043,0.4505721628665924,0.1240743100643158,0.5808255672454834
1781544007804138,103917552,0.7792713642120361,0.0022862362675368786,0.017402103170752525,-0.6264409422874451,-0.29509788751602173,-0.195994034409523,10.300520896911621,0.462840735912323,0.11453358829021454,0.5940673351287842
1781544007806096,103934219,0.7792659997940063,0.0022887170780450106,0.01740133762359619,-0.6264477372169495,-0.300680011510849,-0.1868423968553543,10.296430587768555,0.45545142889022827,0.15483516454696655,0.5503592491149902
1781544007834231,103950886,0.7792683839797974,0.0022973616141825914,0.017397714778780937,-0.6264446973800659,-0.2968323528766632,-0.18411029875278473,10.312862396240234,0.49949243664741516,0.16531077027320862,0.6380699276924133
1781544007835796,103967553,0.7792657017707825,0.0022909543476998806,0.01739320158958435,-0.6264480948448181,-0.29077035188674927,-0.19212450087070465,10.303086280822754,0.4233458936214447,0.0961308628320694,0.5844497680664062
1781544007864285,103984220,0.7792633771896362,0.0022886719089001417,0.0173892043530941,-0.6264510750770569,-0.2951121926307678,-0.19241425395011902,10.306254386901855,0.44328537583351135,0.11665943264961243,0.5852693915367126
1781544007866056,104000887,0.7792628407478333,0.0022949622943997383,0.017387675121426582,-0.6264517903327942,-0.2981337010860443,-0.19085486233234406,10.305510520935059,0.47832998633384705,0.16664904356002808,0.6057531833648682
1781544007894278,104017554,0.7792630195617676,0.0023129303008317947,0.017380496487021446,-0.6264516115188599,-0.28445371985435486,-0.1937669962644577,10.319583892822266,0.5651890635490417,0.18667174875736237,0.6125981211662292
1781544007895952,104034221,0.7792627215385437,0.0023207750637084246,0.017374172806739807,-0.6264521479606628,-0.2973048686981201,-0.18665316700935364,10.292642593383789,0.5072914958000183,0.14766360819339752,0.608884334564209
1781544007924510,104050888,0.7792648077011108,0.0023152402136474848,0.017359420657157898,-0.6264501810073853,-0.29818376898765564,-0.1906260997056961,10.311397552490234,0.47186917066574097,0.044764600694179535,0.6223437786102295
1781544007954294,104067555,0.7792668342590332,0.00231284461915493,0.017354179173707962,-0.6264477968215942,-0.2852490246295929,-0.19263598322868347,10.290604591369629,0.44725534319877625,0.10903966426849365,0.6379034519195557
1781544007955596,104084222,0.7792686820030212,0.002305642468854785,0.0173544492572546,-0.626445472240448,-0.2875520884990692,-0.1967843770980835,10.314261436462402,0.3980277180671692,0.1180553287267685,0.6285804510116577
1781544007984271,104100889,0.7792686820030212,0.002308536320924759,0.017341094091534615,-0.6264458298683167,-0.2933558523654938,-0.18776153028011322,10.31259536743164,0.5112999081611633,0.08881843090057373,0.6040306687355042
1781544007985547,104117556,0.7792564630508423,0.002306993817910552,0.01733800210058689,-0.6264611482620239,-0.28779885172843933,-0.19052602350711823,10.300932884216309,0.4450911283493042,0.1258031725883484,0.4770173132419586
1781544008017751,104134223,0.7792617678642273,0.0023165594320744276,0.017329854890704155,-0.626454770565033,-0.2974136173725128,-0.17302027344703674,10.304668426513672,0.5236452221870422,0.14491024613380432,0.6670507192611694
1781544008018666,104150890,0.7792509198188782,0.0023162513971328735,0.01734101213514805,-0.6264678835868835,-0.28870007395744324,-0.17982600629329681,10.297320365905762,0.3899725675582886,0.20732839405536652,0.49694398045539856
1781544008045489,104167557,0.7792460322380066,0.002309652278199792,0.017334340140223503,-0.6264742016792297,-0.2940211296081543,-0.19195283949375153,10.317158699035645,0.43218228220939636,0.08410570025444031,0.5589651465415955
1781544008047634,104184224,0.7792483568191528,0.00230964832007885,0.01732800342142582,-0.6264714598655701,-0.2880062758922577,-0.1982327401638031,10.301873207092285,0.46510744094848633,0.11372680217027664,0.6319997310638428
1781544008075797,104200891,0.7792473435401917,0.00230134604498744,0.017317717894911766,-0.6264730095863342,-0.2834644913673401,-0.19042231142520905,10.296608924865723,0.43830376863479614,0.057237979024648666,0.591839075088501
1781544008104002,104217558,0.7792453765869141,0.0022943748626857996,0.017315609380602837,-0.6264755129814148,-0.2801564931869507,-0.199724018573761,10.280115127563477,0.41032183170318604,0.10686258226633072,0.5845649838447571
1781544008105507,104234225,0.7792450785636902,0.002298322506248951,0.017315514385700226,-0.6264758706092834,-0.28654003143310547,-0.1869426667690277,10.306300163269043,0.4596647024154663,0.16441433131694794,0.6117401123046875
1781544008133971,104250892,0.7792407870292664,0.0022931687999516726,0.017308097332715988,-0.6264813542366028,-0.2851417362689972,-0.1918635219335556,10.308310508728027,0.4432853162288666,0.08647486567497253,0.5601816773414612
1781544008135406,104267559,0.779239296913147,0.0022989665158092976,0.017305739223957062,-0.6264834403991699,-0.29394596815109253,-0.1863238364458084,10.300064086914062,0.47960421442985535,0.16044434905052185,0.5963724851608276
1781544008164401,104284226,0.7792373895645142,0.0023032387252897024,0.01730414852499962,-0.6264858245849609,-0.28792044520378113,-0.18723233044147491,10.299766540527344,0.46839869022369385,0.15821604430675507,0.5845521688461304
1781544008165592,104300893,0.7792351245880127,0.0022989020217210054,0.017298132181167603,-0.6264888048171997,-0.29042378067970276,-0.1967092752456665,10.309357643127441,0.44124916195869446,0.09732186049222946,0.5834253430366516
1781544008194457,104317560,0.779233992099762,0.002300345804542303,0.017307668924331665,-0.6264899373054504,-0.2914319336414337,-0.19395898282527924,10.2882661819458,0.4051608741283417,0.20553548634052277,0.5962188243865967
1781544008195947,104334227,0.7792275547981262,0.0023021423257887363,0.017299745231866837,-0.6264981031417847,-0.2906598150730133,-0.1856766790151596,10.28773307800293,0.4830235242843628,0.11395729333162308,0.54120272397995
1781544008224527,104350894,0.7792267799377441,0.0023112420458346605,0.017299339175224304,-0.6264990568161011,-0.2863504886627197,-0.18032309412956238,10.317108154296875,0.48870953917503357,0.18505816161632538,0.6081927418708801
1781544008253922,104367561,0.7792252898216248,0.002322984393686056,0.01729239523410797,-0.6265010237693787,-0.28862452507019043,-0.1792214810848236,10.307302474975586,0.5313034057617188,0.1616097092628479,0.5961931943893433
1781544008255427,104384228,0.7792218327522278,0.002320575527846813,0.017289401963353157,-0.6265053749084473,-0.29077354073524475,-0.18478956818580627,10.320279121398926,0.4387263059616089,0.12201248854398727,0.5735130906105042
1781544008283941,104400895,0.7792199850082397,0.00233022915199399,0.01728617213666439,-0.6265079379081726,-0.2852347195148468,-0.18330565094947815,10.30051040649414,0.504230797290802,0.17258478701114655,0.5902766585350037
1781544008285607,104417562,0.7792144417762756,0.002331721829250455,0.017274532467126846,-0.6265150904655457,-0.2879132926464081,-0.18020151555538177,10.293204307556152,0.49726414680480957,0.09274997562170029,0.549334704875946
1781544008314624,104434229,0.7792128324508667,0.0023433135356754065,0.017280828207731247,-0.6265168190002441,-0.29220831394195557,-0.18026229739189148,10.314468383789062,0.47387975454330444,0.23222392797470093,0.5820037126541138
1781544008316663,104450896,0.7792150378227234,0.0023325642105191946,0.01727272942662239,-0.6265143156051636,-0.293031245470047,-0.1898108869791031,10.291523933410645,0.415303498506546,0.05830090120434761,0.6291310787200928
1781544008345385,104467563,0.7792181968688965,0.0023436297196894884,0.017267795279622078,-0.626510500907898,-0.28579002618789673,-0.17324085533618927,10.301517486572266,0.518343448638916,0.16910143196582794,0.6440889239311218
1781544008346036,104484230,0.7792145609855652,0.0023530516773462296,0.017260968685150146,-0.6265152096748352,-0.29205095767974854,-0.1936444789171219,10.30782413482666,0.5187788009643555,0.15261968970298767,0.5686083436012268
1781544008374643,104500897,0.7792208790779114,0.002358190482482314,0.017249956727027893,-0.626507580280304,-0.2876841723918915,-0.19137129187583923,10.306909561157227,0.5127213597297668,0.11105026304721832,0.6620946526527405
1781544008403935,104517564,0.779214084148407,0.0023581015411764383,0.01724863611161709,-0.6265159845352173,-0.2987709939479828,-0.186767578125,10.29245662689209,0.44482219219207764,0.14155498147010803,0.5290495157241821
1781544008405544,104534231,0.7792162299156189,0.002359909238293767,0.017251819372177124,-0.6265133619308472,-0.2806965112686157,-0.17182961106300354,10.290575981140137,0.4341545104980469,0.17299458384513855,0.6252124309539795
1781544008433994,104550898,0.7792113423347473,0.0023571536876261234,0.01724679209291935,-0.6265194416046143,-0.2843549847602844,-0.1780879646539688,10.30797004699707,0.4460514783859253,0.10997452586889267,0.5537529587745667
1781544008435684,104567565,0.7792125344276428,0.0023548463359475136,0.017234278842806816,-0.6265183091163635,-0.28089720010757446,-0.19653058052062988,10.294044494628906,0.4796554148197174,0.07115847617387772,0.6217033863067627
1781544008463984,104584232,0.779213547706604,0.002358769765123725,0.017240159213542938,-0.6265170574188232,-0.2838149666786194,-0.19051171839237213,10.29985237121582,0.4338214695453644,0.19658388197422028,0.6214857697486877
1781544008465564,104600899,0.7792070508003235,0.002358904341235757,0.017231635749340057,-0.6265254020690918,-0.28886812925338745,-0.19565430283546448,10.302316665649414,0.4769532382488251,0.10391712188720703,0.5349404215812683
1781544008493951,104617566,0.7792081832885742,0.0023635360412299633,0.01721571572124958,-0.6265243887901306,-0.285645991563797,-0.19428104162216187,10.29343318939209,0.53153395652771,0.0828762874007225,0.6220108270645142
1781544008495647,104634233,0.7792084217071533,0.0023555064108222723,0.01720692403614521,-0.6265243291854858,-0.29626694321632385,-0.18319830298423767,10.303450584411621,0.43330928683280945,0.06667625904083252,0.6087050437927246
1781544008524159,104650900,0.7792115807533264,0.002364136278629303,0.017191816121339798,-0.6265207529067993,-0.2999281585216522,-0.19527727365493774,10.317416191101074,0.549270749092102,0.1042885035276413,0.6430643796920776
1781544008554040,104667567,0.7792164087295532,0.0023656561970710754,0.017179174348711967,-0.6265151500701904,-0.2867576777935028,-0.20236672461032867,10.303393363952637,0.5001327991485596,0.08666697889566422,0.6640156507492065
1781544008555746,104684234,0.7792136669158936,0.0023646242916584015,0.01717754267156124,-0.6265185475349426,-0.2873729467391968,-0.19578291475772858,10.2894287109375,0.4403783082962036,0.13547195494174957,0.5803389549255371
1781544008584574,104700901,0.779210090637207,0.002353555988520384,0.01716255582869053,-0.6265234351158142,-0.2823372483253479,-0.1841960847377777,10.280355453491211,0.444566011428833,0.02088075317442417,0.5601689219474792
1781544008585928,104717568,0.7792065143585205,0.002349877031520009,0.01716318167746067,-0.6265278458595276,-0.2979699373245239,-0.19206038117408752,10.28355884552002,0.4164176285266876,0.13616350293159485,0.5766890645027161
1781544008614381,104734235,0.7792009711265564,0.0023511562030762434,0.017162811011075974,-0.6265347599983215,-0.2898659110069275,-0.18975713849067688,10.306729316711426,0.4478956460952759,0.15247879922389984,0.5472601652145386
1781544008615976,104750902,0.7791983485221863,0.0023459908552467823,0.017156515270471573,-0.6265381574630737,-0.29300224781036377,-0.2046627700328827,10.294731140136719,0.43849581480026245,0.09274998307228088,0.5785973072052002
1781544008644031,104767569,0.7791956663131714,0.0023463470861315727,0.017149973660707474,-0.6265416145324707,-0.2821234166622162,-0.20969806611537933,10.312830924987793,0.4691542387008667,0.11522514373064041,0.5760488510131836
1781544008645898,104784236,0.7792001962661743,0.0023399093188345432,0.017141206189990044,-0.6265363693237305,-0.29645997285842896,-0.1985151618719101,10.309371948242188,0.4413004517555237,0.07334837317466736,0.6525924801826477
1781544008674594,104800903,0.7791987657546997,0.002333949087187648,0.01714163087308407,-0.6265381574630737,-0.2933316230773926,-0.1972065269947052,10.314715385437012,0.4051992893218994,0.12522688508033752,0.5896106958389282
1781544008703916,104817570,0.7791966795921326,0.0023343139328062534,0.01715019717812538,-0.62654048204422,-0.29487258195877075,-0.202638640999794,10.298135757446289,0.40371376276016235,0.19596916437149048,0.5961676239967346
1781544008706003,104834237,0.7791932225227356,0.0023291725665330887,0.017141766846179962,-0.6265449523925781,-0.28885743021965027,-0.18452157080173492,10.306536674499512,0.4482158124446869,0.08158285170793533,0.5644462704658508
1781544008734003,104850904,0.7791911959648132,0.002315850229933858,0.017123781144618988,-0.6265479922294617,-0.2811896502971649,-0.1885698288679123,10.299013137817383,0.44511672854423523,-0.005160958971828222,0.5859993696212769
1781544008736110,104867571,0.7791916728019714,0.0023227904457598925,0.017132746055722237,-0.6265473961830139,-0.29921770095825195,-0.19145940244197845,10.294588088989258,0.4370359182357788,0.22634585201740265,0.6185275316238403
1781544008764435,104884238,0.7791885137557983,0.0023312398698180914,0.017131159082055092,-0.6265513300895691,-0.27970990538597107,-0.18789412081241608,10.311149597167969,0.49132198095321655,0.17668280005455017,0.5752676129341125
1781544008766054,104900905,0.7791872620582581,0.002317529171705246,0.017142225056886673,-0.6265527009963989,-0.28321415185928345,-0.19288989901542664,10.31972885131836,0.3178856074810028,0.14891864359378815,0.5920438766479492
1781544008794029,104917572,0.7791885137557983,0.002321750158444047,0.01713755913078785,-0.6265510320663452,-0.2743697166442871,-0.19175249338150024,10.288287162780762,0.48114094138145447,0.14147813618183136,0.6283371448516846
1781544008796318,104934239,0.7791848182678223,0.0023214456159621477,0.017138835042715073,-0.6265556216239929,-0.29298436641693115,-0.208929181098938,10.301311492919922,0.4322206974029541,0.15442536771297455,0.5688388347625732
1781544008824207,104950906,0.7791860103607178,0.0023174185771495104,0.017137298360466957,-0.6265541911125183,-0.29444384574890137,-0.18051278591156006,10.293476104736328,0.4238452911376953,0.12294735759496689,0.6172211766242981
1781544008853932,104967573,0.7791817784309387,0.002306443639099598,0.017131051048636436,-0.6265596151351929,-0.3003191649913788,-0.18615232408046722,10.29153823852539,0.4078373908996582,0.0682898610830307,0.5552128553390503
1781544008855524,104984240,0.7791810631752014,0.0022991925943642855,0.017142279073596,-0.6265602111816406,-0.28499484062194824,-0.18454644083976746,10.290765762329102,0.35169440507888794,0.1775152087211609,0.6027628183364868
1781544008884005,105000907,0.7791715860366821,0.0022967003751546144,0.017145244404673576,-0.6265719532966614,-0.2864971160888672,-0.1797330230474472,10.306068420410156,0.4142341911792755,0.1546238660812378,0.5064014792442322
1781544008885933,105017574,0.779170572757721,0.002294935053214431,0.017138170078396797,-0.6265734434127808,-0.286700963973999,-0.19430965185165405,10.289478302001953,0.45990800857543945,0.1030719056725502,0.6008675694465637
1781544008914000,105034241,0.7791702151298523,0.0022836755961179733,0.01714237965643406,-0.626573920249939,-0.30172133445739746,-0.19841887056827545,10.327189445495605,0.3605179488658905,0.12269123643636703,0.6022506356239319
1781544008915749,105050908,0.7791685461997986,0.0022814995609223843,0.01714579574763775,-0.6265758872032166,-0.28613948822021484,-0.20360420644283295,10.305946350097656,0.4127166271209717,0.15761414170265198,0.5936703681945801
1781544008944000,105067575,0.7791668176651001,0.0022773549426347017,0.017141349613666534,-0.626578152179718,-0.29498669505119324,-0.18261177837848663,10.285076141357422,0.4361906945705414,0.10709308832883835,0.5876386165618896
1781544008945775,105084242,0.779161810874939,0.002275664359331131,0.017134839668869972,-0.6265846490859985,-0.285338431596756,-0.1805233657360077,10.295403480529785,0.4589475095272064,0.1070418730378151,0.5462612509727478
1781544008974191,105100909,0.7791626453399658,0.002272520214319229,0.017142893746495247,-0.6265832185745239,-0.2777246832847595,-0.19010044634342194,10.2920560836792,0.3871039152145386,0.17809148132801056,0.622177243232727
1781544009003942,105117576,0.7791584134101868,0.002278628060594201,0.017145326361060143,-0.6265884041786194,-0.3044854402542114,-0.1921675056219101,10.291648864746094,0.4620082378387451,0.18850304186344147,0.5585681796073914
1781544009005610,105134243,0.779156506061554,0.002275632694363594,0.01714153215289116,-0.6265907883644104,-0.2887859046459198,-0.18853048980236053,10.310895919799805,0.4396611750125885,0.1156093180179596,0.584014356136322
1781544009036060,105150910,0.7791562676429749,0.002286628820002079,0.017133906483650208,-0.6265914440155029,-0.2866973876953125,-0.19045449793338776,10.281338691711426,0.5307655930519104,0.15515534579753876,0.6063871383666992
1781544009036835,105167577,0.7791038751602173,0.0023071812465786934,0.017344126477837563,-0.6266507506370544,-0.2869194746017456,-0.1911412924528122,10.29525375366211,0.43443620204925537,0.14592194557189941,0.5516271591186523
1781544009063994,105184244,0.7791040539741516,0.0022997381165623665,0.017348015680909157,-0.6266504526138306,-0.2875342071056366,-0.17926454544067383,10.307912826538086,0.3831467628479004,0.13617631793022156,0.6100368499755859
1781544009065721,105200911,0.7791026830673218,0.0022968219127506018,0.017347171902656555,-0.626652181148529,-0.2944720685482025,-0.18091675639152527,10.30415153503418,0.42786651849746704,0.1304134726524353,0.5978452563285828
1781544009094228,105217578,0.7791102528572083,0.002291324082762003,0.017332766205072403,-0.6266432404518127,-0.29463300108909607,-0.19284698367118835,10.296208381652832,0.47115200757980347,0.045801907777786255,0.6899228692054749
1781544009096048,105234245,0.7791057825088501,0.0022868483792990446,0.01732330396771431,-0.626649022102356,-0.29276978969573975,-0.19859394431114197,10.311185836791992,0.45767971873283386,0.07804828882217407,0.5491811037063599
1781544009124298,105250912,0.7791077494621277,0.0022880975157022476,0.017331460490822792,-0.6266463398933411,-0.2754148244857788,-0.18958567082881927,10.301615715026855,0.41121822595596313,0.19641736149787903,0.6253276467323303
1781544009154077,105267579,0.7791057229042053,0.0022827819921076298,0.017322702333331108,-0.6266490817070007,-0.27393031120300293,-0.18490421772003174,10.29887580871582,0.44940686225891113,0.07785620540380478,0.5848211050033569
1781544009155821,105284246,0.7791056036949158,0.0022882125340402126,0.01732226088643074,-0.6266492605209351,-0.2972007095813751,-0.19044019281864166,10.314003944396973,0.47090867161750793,0.16861478984355927,0.6062076687812805
1781544009184090,105300913,0.7791000008583069,0.0022853172849863768,0.01732775941491127,-0.6266560554504395,-0.28647565841674805,-0.18574462831020355,10.327596664428711,0.40154945850372314,0.16501621901988983,0.5488737225532532
1781544009185983,105317580,0.7790995240211487,0.00229178206063807,0.017332224175333977,-0.6266565322875977,-0.2778248190879822,-0.19383400678634644,10.32581901550293,0.4557587206363678,0.1995677351951599,0.5914292335510254
1781544009214122,105334247,0.7790968418121338,0.0022980687208473682,0.017325712367892265,-0.6266600489616394,-0.2945292890071869,-0.1845466047525406,10.305167198181152,0.5019640922546387,0.13996700942516327,0.5823111534118652
1781544009216037,105350914,0.7790937423706055,0.0022977557964622974,0.01732870191335678,-0.6266635656356812,-0.2911783754825592,-0.1890132874250412,10.290725708007812,0.4256638288497925,0.1624165177345276,0.579596221446991
1781544009244056,105367581,0.7790888547897339,0.0023003644309937954,0.017332198098301888,-0.6266697645187378,-0.3057546615600586,-0.1967448890209198,10.299416542053223,0.43959712982177734,0.17800185084342957,0.5541115403175354
1781544009245981,105384248,0.779089093208313,0.002298431470990181,0.01733374409377575,-0.6266694068908691,-0.2972007095813751,-0.1925966441631317,10.28890609741211,0.4229489266872406,0.14748433232307434,0.6081030964851379
1781544009274285,105400915,0.779091477394104,0.0022946412209421396,0.01733626052737236,-0.6266664266586304,-0.2922405004501343,-0.1899431049823761,10.315119743347168,0.40849050879478455,0.14450043439865112,0.6309880614280701
1781544009303997,105417582,0.779090166091919,0.002294965321198106,0.017333872616291046,-0.6266679763793945,-0.291067510843277,-0.18956759572029114,10.291827201843262,0.45216017961502075,0.13618911802768707,0.5960139036178589
1781544009305788,105434249,0.7790881395339966,0.002297983504831791,0.01732727512717247,-0.6266706585884094,-0.3062842786312103,-0.18157120048999786,10.295225143432617,0.4848548173904419,0.12539337575435638,0.5856152176856995
1781544009335549,105450916,0.7790868878364563,0.002294978592544794,0.0173275638371706,-0.6266721487045288,-0.2792049050331116,-0.19357997179031372,10.311283111572266,0.4228079915046692,0.1362019181251526,0.5941569209098816
1781544009338128,105467583,0.7790859937667847,0.002288591582328081,0.017325181514024734,-0.6266735196113586,-0.2965036928653717,-0.19510728120803833,10.317161560058594,0.4161231517791748,0.1072467714548111,0.5989466309547424
1781544009365789,105484250,0.7790852189064026,0.002284620888531208,0.01732310652732849,-0.6266745328903198,-0.28827059268951416,-0.18923132121562958,10.302949905395508,0.42757198214530945,0.11924632638692856,0.6054521203041077
1781544009368192,105500917,0.7790868282318115,0.0022826248314231634,0.0173183586448431,-0.6266726851463318,-0.28537777066230774,-0.18169279396533966,10.300381660461426,0.4494580328464508,0.11330416798591614,0.6257758736610413
1781544009395098,105517584,0.7790868282318115,0.002283962443470955,0.017304252833127975,-0.62667316198349,-0.29119670391082764,-0.197310209274292,10.291419982910156,0.5080854892730713,0.0777793601155281,0.6030829548835754
1781544009396907,105534251,0.7790842652320862,0.002279405714944005,0.0173033457249403,-0.6266763806343079,-0.29351040720939636,-0.19034378230571747,10.298979759216309,0.4199009835720062,0.1232675239443779,0.5802493095397949
1781544009425979,105550918,0.7790842056274414,0.0022782685700803995,0.017307382076978683,-0.6266763210296631,-0.2984091341495514,-0.19107301533222198,10.29630184173584,0.4165969491004944,0.16429907083511353,0.6066303849220276
1781544009453930,105567585,0.7790758609771729,0.0022858688607811928,0.01729784905910492,-0.6266869902610779,-0.2886750400066376,-0.19479243457317352,10.31261920928955,0.5231201648712158,0.12995243072509766,0.5198673605918884
1781544009455939,105584252,0.77907395362854,0.002283070469275117,0.017293568700551987,-0.6266893148422241,-0.2879522740840912,-0.19840429723262787,10.318953514099121,0.4437336027622223,0.11267665773630142,0.5899564623832703
1781544009484385,105600919,0.7790735363960266,0.0022752443328499794,0.017299246042966843,-0.6266897916793823,-0.2935279309749603,-0.1859198659658432,10.295002937316895,0.373977392911911,0.1443851888179779,0.5955528616905212
1781544009485563,105617586,0.7790696620941162,0.002280629938468337,0.017305172979831696,-0.62669438123703,-0.28247353434562683,-0.1949925273656845,10.301216125488281,0.44401535391807556,0.20287176966667175,0.5666361451148987
1781544009514381,105634253,0.7790668606758118,0.00227675074711442,0.0173055250197649,-0.6266977787017822,-0.2830532193183899,-0.18790465593338013,10.32409954071045,0.418850839138031,0.13332049548625946,0.5573387145996094
1781544009515541,105650920,0.7790682911872864,0.0022713332436978817,0.017297307029366493,-0.6266961693763733,-0.2919576168060303,-0.20053215324878693,10.299077033996582,0.4464101791381836,0.08011012524366379,0.6191550493240356
1781544009544340,105667587,0.7790747880935669,0.0022661311086267233,0.017298826947808266,-0.6266881227493286,-0.29581671953201294,-0.19393771886825562,10.282368659973145,0.4047639071941376,0.1326417475938797,0.676053524017334
1781544009545553,105684254,0.77907794713974,0.002266683615744114,0.017292290925979614,-0.6266843676567078,-0.28350383043289185,-0.18781167268753052,10.313141822814941,0.47103679180145264,0.11473849415779114,0.6343689560890198
1781544009574553,105700921,0.7790766358375549,0.0022634128108620644,0.01729363203048706,-0.626686155796051,-0.2966356575489044,-0.18432487547397614,10.287525177001953,0.41709640622138977,0.14076098799705505,0.5920183658599854
1781544009604305,105717588,0.7790829539299011,0.0022537605836987495,0.017283888533711433,-0.6266785860061646,-0.29047027230262756,-0.1908586025238037,10.292442321777344,0.43003085255622864,0.05351133272051811,0.6550768613815308
1781544009605676,105734255,0.7790868282318115,0.0022571568842977285,0.017278017476201057,-0.6266739964485168,-0.29060259461402893,-0.18472184240818024,10.311203002929688,0.48306193947792053,0.13034942746162415,0.6486735939979553
1781544009634290,105750922,0.7790899276733398,0.002252044389024377,0.017272822558879852,-0.6266703009605408,-0.29011625051498413,-0.17731907963752747,10.290067672729492,0.4348140358924866,0.09743070602416992,0.6378970742225647
1781544009635619,105767589,0.7790960073471069,0.00224685319699347,0.017271613702178,-0.6266628503799438,-0.2792445719242096,-0.20430514216423035,10.304701805114746,0.41645607352256775,0.11802971363067627,0.6767450571060181
1781544009664013,105784256,0.7790935039520264,0.00224834936670959,0.017282001674175262,-0.626665472984314,-0.2744635045528412,-0.19535771012306213,10.323787689208984,0.40380340814590454,0.20992808043956757,0.5826824903488159
1781544009666050,105800923,0.7790937423706055,0.002246599644422531,0.01728067547082901,-0.6266651749610901,-0.28350740671157837,-0.19496409595012665,10.321087837219238,0.43645957112312317,0.13289788365364075,0.6115992069244385
1781544009694009,105817590,0.7790939211845398,0.002251656260341406,0.017269903793931007,-0.6266651749610901,-0.29072463512420654,-0.1894640177488327,10.297513961791992,0.5139636397361755,0.11183144152164459,0.601699948310852
1781544009695524,105834257,0.7790969014167786,0.0022441125474870205,0.01727196015417576,-0.6266615986824036,-0.2893795371055603,-0.18340221047401428,10.300796508789062,0.39053604006767273,0.12585440278053284,0.6368405222892761
1781544009724373,105850924,0.7791002988815308,0.002244757954031229,0.017280953004956245,-0.6266571283340454,-0.29644253849983215,-0.18478620052337646,10.285704612731934,0.4042644500732422,0.1982230544090271,0.6480588912963867
1781544009753957,105867591,0.7790954113006592,0.0022553373128175735,0.017274955287575722,-0.6266632676124573,-0.2988600730895996,-0.20312857627868652,10.311114311218262,0.5234531760215759,0.1615200787782669,0.5573131442070007
1781544009756150,105884258,0.7790932059288025,0.002260857727378607,0.01727154105901718,-0.6266661286354065,-0.29773715138435364,-0.1938304305076599,10.323247909545898,0.4850468933582306,0.15337523818016052,0.5798137784004211
1781544009784296,105900925,0.7790940999984741,0.0022648663725703955,0.017273450270295143,-0.626664936542511,-0.2759258449077606,-0.1920924037694931,10.295368194580078,0.4533255398273468,0.17500516772270203,0.6178487539291382
1781544009785698,105917592,0.7790890336036682,0.0022623927798122168,0.017267022281885147,-0.6266714334487915,-0.28809210658073425,-0.19774280488491058,10.30925464630127,0.4554130733013153,0.10294384509325027,0.5555330514907837
1781544009814278,105934259,0.779084324836731,0.002253837650641799,0.017254240810871124,-0.6266776919364929,-0.28097546100616455,-0.18800479173660278,10.313041687011719,0.45040568709373474,0.042792417109012604,0.5519984364509583
1781544009815846,105950926,0.7790806293487549,0.0022531780414283276,0.017240390181541443,-0.6266825795173645,-0.2968287765979767,-0.19203518331050873,10.286967277526855,0.49713608622550964,0.07090235501527786,0.5671868324279785
1781544009844585,105967593,0.7790805101394653,0.0022498455364257097,0.017225103452801704,-0.626683235168457,-0.2900451421737671,-0.19550776481628418,10.295761108398438,0.48836371302604675,0.05137266963720322,0.605221688747406
1781544009845638,105984260,0.7790710926055908,0.0022433316335082054,0.017217809334397316,-0.6266951560974121,-0.290424108505249,-0.19241078197956085,10.288322448730469,0.43839335441589355,0.08139074593782425,0.5038721561431885
1781544009874642,106000927,0.7790694832801819,0.0022306109312921762,0.01721498928964138,-0.6266972422599792,-0.2909065783023834,-0.1824437975883484,10.285908699035645,0.3846963047981262,0.07784339040517807,0.588176429271698
1781544009903936,106017594,0.7790676355361938,0.0022230157628655434,0.017214898020029068,-0.6266995072364807,-0.2940104305744171,-0.20096129179000854,10.308632850646973,0.40033289790153503,0.11450797319412231,0.588176429271698
1781544009906121,106034261,0.7790701389312744,0.002221236238256097,0.017211349681019783,-0.6266965270042419,-0.28891462087631226,-0.19563284516334534,10.292564392089844,0.44573137164115906,0.12065501511096954,0.635649561882019
1781544009933973,106050928,0.7790734767913818,0.0022125677205622196,0.017210617661476135,-0.6266924738883972,-0.2873411178588867,-0.18966415524482727,10.320540428161621,0.39656782150268555,0.10600455850362778,0.6415661573410034
1781544009935757,106067595,0.7790709137916565,0.002208546968176961,0.01720592938363552,-0.6266958713531494,-0.2743093967437744,-0.18450726568698883,10.312561988830566,0.4394818842411041,0.10545387864112854,0.5783539414405823
1781544009964326,106084262,0.779069185256958,0.002213630825281143,0.017207525670528412,-0.6266979575157166,-0.27398359775543213,-0.1875254213809967,10.314576148986816,0.4612014889717102,0.17832200229167938,0.5861659049987793
1781544009965884,106100929,0.7790716886520386,0.002219368703663349,0.017192376777529716,-0.6266952157020569,-0.2758292853832245,-0.18581973016262054,10.302656173706055,0.5362338423728943,0.091033935546875,0.6298866868019104
1781544009994284,106117596,0.7790725231170654,0.0022254465147852898,0.017206484451889992,-0.6266937255859375,-0.2849486172199249,-0.18650636076927185,10.29140567779541,0.41217878460884094,0.24946126341819763,0.6138915419578552
1781544009995738,106134263,0.7790759205818176,0.0022281177807599306,0.01720348745584488,-0.626689612865448,-0.2928413152694702,-0.1904759556055069,10.301987648010254,0.46715641021728516,0.14279720187187195,0.6451774835586548
1781544010024569,106150930,0.7790725827217102,0.0022226234432309866,0.01720784604549408,-0.6266937255859375,-0.2904384136199951,-0.17050299048423767,10.318330764770508,0.39268746972084045,0.14762519299983978,0.5715537667274475
1781544010055012,106167597,0.7790791392326355,0.002222900977358222,0.01720498315989971,-0.6266855001449585,-0.2891072630882263,-0.1907726228237152,10.298458099365234,0.45326149463653564,0.13288508355617523,0.679216742515564
1781544010057356,106184264,0.7790771722793579,0.0022218837402760983,0.017197225242853165,-0.6266881823539734,-0.2896295189857483,-0.1970238834619522,10.298669815063477,0.4687700867652893,0.10186811536550522,0.5852693915367126
1781544010084123,106200931,0.7790730595588684,0.002214394975453615,0.017190299928188324,-0.6266934871673584,-0.2814832627773285,-0.18018363416194916,10.298049926757812,0.43082481622695923,0.07872702926397324,0.5617569088935852
1781544010086718,106217598,0.7790723443031311,0.002213246189057827,0.017198916524648666,-0.6266942620277405,-0.28836390376091003,-0.18970707058906555,10.288004875183105,0.39747709035873413,0.18909215927124023,0.5943363308906555
1781544010114005,106234265,0.7790722250938416,0.0022225400898605585,0.017198065295815468,-0.62669438123703,-0.2975333034992218,-0.1800691932439804,10.307373046875,0.49396008253097534,0.18318842351436615,0.6072578430175781
1781544010116154,106250932,0.779072105884552,0.002222576877102256,0.017185382544994354,-0.626694917678833,-0.28596386313438416,-0.19579368829727173,10.299714088439941,0.4953368008136749,0.0798603966832161,0.6062653660774231
1781544010144019,106267599,0.7790673971176147,0.0022140908986330032,0.017185430973768234,-0.626700758934021,-0.2950192093849182,-0.19132709503173828,10.305484771728516,0.3957226276397705,0.11195951700210571,0.551447868347168
1781544010146265,106284266,0.7790675163269043,0.0022092056460678577,0.017193708568811417,-0.6267003417015076,-0.2879275977611542,-0.1793074607849121,10.323169708251953,0.37860050797462463,0.1709967851638794,0.6092684864997864
1781544010174205,106300933,0.7790668606758118,0.0021998994052410126,0.017216578125953674,-0.6267005205154419,-0.2893652319908142,-0.1842569261789322,10.30411148071289,0.2919655740261078,0.23000843822956085,0.6087177991867065
1781544010203919,106317600,0.779066801071167,0.002195211360231042,0.017213862389326096,-0.6267005801200867,-0.29690030217170715,-0.1831912249326706,10.310544967651367,0.42730310559272766,0.11304806172847748,0.6001375913619995
1781544010205986,106334267,0.7790664434432983,0.002203382318839431,0.017196163535118103,-0.6267015337944031,-0.29351720213890076,-0.19150589406490326,10.29081916809082,0.5608475804328918,0.08821652829647064,0.5956296920776367
1781544010234020,106350934,0.7790685296058655,0.0022114019375294447,0.017201321199536324,-0.6266989707946777,-0.2738194763660431,-0.19815050065517426,10.303722381591797,0.4609837830066681,0.20973597466945648,0.6265186667442322
1781544010236140,106367601,0.7790639996528625,0.0022162117529660463,0.017214063555002213,-0.626704216003418,-0.29168230295181274,-0.18347352743148804,10.322776794433594,0.412050724029541,0.23712880909442902,0.5603994727134705
1781544010263996,106384268,0.7790614366531372,0.0022220786195248365,0.017209799960255623,-0.6267075538635254,-0.28825661540031433,-0.18948176503181458,10.297234535217285,0.4908738136291504,0.15046821534633636,0.5750755071640015
1781544010266121,106400935,0.7790611982345581,0.0022239750251173973,0.01721181720495224,-0.6267075538635254,-0.2863326072692871,-0.1882980465888977,10.301822662353516,0.44183823466300964,0.16660422086715698,0.6113431453704834
1781544010293987,106417602,0.7790687680244446,0.002232377417385578,0.01720227673649788,-0.6266985535621643,-0.2922855615615845,-0.18420706689357758,10.291964530944824,0.5254124402999878,0.13200144469738007,0.6908577680587769
1781544010296158,106434269,0.7790722250938416,0.0022201831452548504,0.0171998031437397,-0.62669438123703,-0.2966499626636505,-0.1954433023929596,10.298300743103027,0.3852726221084595,0.0815444216132164,0.6445627808570862
1781544010324334,106450936,0.7790698409080505,0.0022208578884601593,0.01720348373055458,-0.6266971826553345,-0.30012214183807373,-0.1756059229373932,10.286706924438477,0.42871174216270447,0.1705869883298874,0.5799548029899597
1781544010354345,106467603,0.779070258140564,0.002221092814579606,0.01719757355749607,-0.6266968250274658,-0.2789691984653473,-0.1948961466550827,10.291248321533203,0.46725890040397644,0.11699240654706955,0.6090508103370667
1781544010355828,106484270,0.7790670394897461,0.0022216395009309053,0.017183082178235054,-0.6267012357711792,-0.290094792842865,-0.1917276233434677,10.310856819152832,0.5065743923187256,0.07275927811861038,0.5675838589668274
1781544010384056,106500937,0.7790700197219849,0.002216958673670888,0.01716991327702999,-0.6266978979110718,-0.28012073040008545,-0.1768219918012619,10.285250663757324,0.4716770350933075,0.056572042405605316,0.6415532827377319
1781544010385736,106517604,0.7790648937225342,0.002218856243416667,0.01716957800090313,-0.6267042756080627,-0.28667235374450684,-0.18961408734321594,10.294512748718262,0.45277491211891174,0.1544765830039978,0.5569929480552673
1781544010414053,106534271,0.7790663838386536,0.002210017526522279,0.017165780067443848,-0.6267025470733643,-0.27434873580932617,-0.19086575508117676,10.31148910522461,0.4093742072582245,0.08911298215389252,0.6208710670471191
1781544010415680,106550938,0.7790661454200745,0.002216275315731764,0.017170649021863937,-0.6267026662826538,-0.2821448743343353,-0.18699629604816437,10.324167251586914,0.45296698808670044,0.20064346492290497,0.612457275390625
1781544010444053,106567605,0.7790582776069641,0.002225870033726096,0.01716773211956024,-0.6267125606536865,-0.2771560549736023,-0.1853405237197876,10.278749465942383,0.5057420134544373,0.1741599589586258,0.5236964821815491
1781544010445702,106584272,0.779061496257782,0.0022273422218859196,0.017168553546071053,-0.626708447933197,-0.2870943546295166,-0.1894388496875763,10.285636901855469,0.44441232085227966,0.1581519991159439,0.6428338885307312
1781544010474261,106600939,0.7790669202804565,0.002228854689747095,0.01715746708214283,-0.6267018914222717,-0.29161468148231506,-0.1829194277524948,10.29547119140625,0.4955737590789795,0.09431236982345581,0.664886474609375
1781544010503984,106617606,0.7790637612342834,0.0022250779438763857,0.01716790348291397,-0.6267057657241821,-0.29539114236831665,-0.18453945219516754,10.321349143981934,0.37588557600975037,0.18765783309936523,0.5730393528938293
1781544010505831,106634273,0.7790622115135193,0.0022377450950443745,0.0171743705868721,-0.6267073750495911,-0.29415377974510193,-0.19310088455677032,10.304240226745605,0.4806670844554901,0.23702631890773773,0.5960395336151123
1781544010534031,106650940,0.7790611386299133,0.002247408963739872,0.01717684417963028,-0.6267086267471313,-0.28707289695739746,-0.19012190401554108,10.30868911743164,0.48176851868629456,0.2026412934064865,0.5995228886604309
1781544010536166,106667607,0.7790613770484924,0.0022451456170529127,0.017172278836369514,-0.626708447933197,-0.292573481798172,-0.18621326982975006,10.312161445617676,0.4480365216732025,0.11344504356384277,0.6107668280601501
1781544010564041,106684274,0.7790648341178894,0.0022432582918554544,0.01716412976384163,-0.6267042756080627,-0.2718811631202698,-0.1905546337366104,10.297259330749512,0.4652482569217682,0.09558019042015076,0.6412586569786072
1781544010566026,106700941,0.7790639996528625,0.002237297361716628,0.017172519117593765,-0.6267052888870239,-0.2802390456199646,-0.19395935535430908,10.301654815673828,0.3732730746269226,0.16739818453788757,0.5789430141448975
1781544010594064,106717608,0.7790626883506775,0.0022520555648952723,0.017168335616588593,-0.6267068982124329,-0.29115334153175354,-0.18916349112987518,10.319925308227539,0.5379883646965027,0.189066544175148,0.5937472581863403
1781544010595611,106734275,0.7790579199790955,0.002250035759061575,0.01716962642967701,-0.6267127990722656,-0.2931205928325653,-0.19288291037082672,10.292750358581543,0.42490825057029724,0.14637018740177155,0.5572875142097473
1781544010624317,106750942,0.7790512442588806,0.002237133914604783,0.01717764139175415,-0.6267209649085999,-0.2835610508918762,-0.18512952327728271,10.32817268371582,0.33815810084342957,0.13575372099876404,0.5306503772735596
1781544010654022,106767609,0.7790461778640747,0.0022354561369866133,0.017171615734696388,-0.6267274618148804,-0.29978665709495544,-0.19331559538841248,10.301959037780762,0.45860180258750916,0.10880914330482483,0.5474522709846497
1781544010655745,106784276,0.7790371179580688,0.0022340852301567793,0.017176317051053047,-0.6267385482788086,-0.30244341492652893,-0.1951858103275299,10.28193187713623,0.4145351052284241,0.1678464114665985,0.5105955600738525
1781544010684054,106800943,0.7790367007255554,0.0022272157948464155,0.017170611768960953,-0.6267392039299011,-0.2870049476623535,-0.19051529467105865,10.297388076782227,0.4287373423576355,0.0876658633351326,0.5957832932472229
1781544010685655,106817610,0.7790271043777466,0.002224357333034277,0.017163576558232307,-0.6267515420913696,-0.2833104133605957,-0.18506863713264465,10.282133102416992,0.4573339521884918,0.09865371882915497,0.49858322739601135
1781544010714055,106834277,0.7790250182151794,0.0022194846533238888,0.017164506018161774,-0.6267539262771606,-0.2848985493183136,-0.19272896647453308,10.310405731201172,0.4109749495983124,0.13189899921417236,0.5837582349777222
1781544010715670,106850944,0.7790190577507019,0.002216999651864171,0.017161186784505844,-0.6267613172531128,-0.29859867691993713,-0.19172394275665283,10.290619850158691,0.4426450729370117,0.11980980634689331,0.5407416820526123
1781544010743988,106867611,0.7790195345878601,0.0022242465056478977,0.017154313623905182,-0.6267610788345337,-0.2946651875972748,-0.18732531368732452,10.314619064331055,0.509231686592102,0.14213767647743225,0.6073155403137207
1781544010745658,106884278,0.7790193557739258,0.0022226099390536547,0.017145954072475433,-0.6267614960670471,-0.29353150725364685,-0.17363201081752777,10.291863441467285,0.46812963485717773,0.09590034931898117,0.6013157367706299
1781544010774199,106900945,0.7790176272392273,0.0022107004188001156,0.017148679122328758,-0.6267635226249695,-0.29011625051498413,-0.18169279396533966,10.299548149108887,0.3655380308628082,0.111127108335495,0.5851925015449524
1781544010803940,106917612,0.779022753238678,0.0022091595456004143,0.017159128561615944,-0.6267569065093994,-0.2910500168800354,-0.20007826387882233,10.312015533447266,0.38688623905181885,0.19663508236408234,0.6558195352554321
1781544010805658,106934279,0.7790248990058899,0.0022077886387705803,0.01715666614472866,-0.6267542839050293,-0.2929668724536896,-0.19100536406040192,10.293107986450195,0.4436824321746826,0.12833882868289948,0.6296946406364441
1781544010834102,106950946,0.7790188789367676,0.0021921778097748756,0.017150510102510452,-0.6267620325088501,-0.2891077399253845,-0.18558727204799652,10.285941123962402,0.38483723998069763,0.04805583134293556,0.5331347584724426
1781544010835825,106967613,0.7790122032165527,0.002188497455790639,0.017156824469566345,-0.6267701387405396,-0.28474149107933044,-0.1984117478132248,10.288301467895508,0.39483895897865295,0.1661943942308426,0.535900890827179
1781544010864107,106984280,0.7790079712867737,0.0021836948581039906,0.017158299684524536,-0.626775324344635,-0.2862536311149597,-0.18993225693702698,10.29785442352295,0.4093741774559021,0.13526704907417297,0.5596951246261597
1781544010865713,107000947,0.7790113687515259,0.002185513498261571,0.017163023352622986,-0.626771092414856,-0.2885427176952362,-0.19253942370414734,10.311715126037598,0.4295441806316376,0.18037103116512299,0.6469191908836365
1781544010894114,107017614,0.7790114879608154,0.0021894495002925396,0.0171453095972538,-0.6267712712287903,-0.2845833897590637,-0.17209775745868683,10.319815635681152,0.5382445454597473,0.06968574970960617,0.6065407395362854
1781544010895830,107034281,0.7790131568908691,0.0021852038335055113,0.017131414264440536,-0.6267698407173157,-0.2803531885147095,-0.16533163189888,10.302735328674316,0.4778624475002289,0.05484319105744362,0.6173363924026489
1781544010924341,107050948,0.7790122628211975,0.0021799555979669094,0.017133943736553192,-0.6267707943916321,-0.2767666280269623,-0.17265945672988892,10.305696487426758,0.4019336700439453,0.13868635892868042,0.5954888463020325
1781544010954099,107067615,0.779010534286499,0.0021842869464308023,0.017134210094809532,-0.6267729997634888,-0.28200897574424744,-0.19252511858940125,10.323787689208984,0.4630071520805359,0.1679360568523407,0.5892521739006042
1781544010955858,107084282,0.7790138125419617,0.0021949191577732563,0.017134245485067368,-0.6267688870429993,-0.29510146379470825,-0.19755683839321136,10.273595809936523,0.49713608622550964,0.19342069327831268,0.6404646635055542
