host_t_us,sensor_t_us,qw,qx,qy,qz,ax,ay,az,gx,gy,gz
1781548220103868,155805424,-0.006128236651420593,0.569399356842041,0.8220289349555969,-0.004053867422044277,0.028194818645715714,-0.1357671320438385,-9.8594388961792,0.7376136779785156,-0.0024844317231327295,0.09264754503965378
1781548220106204,155822091,-0.006131065543740988,0.5694032311439514,0.8220261931419373,-0.004053301643580198,0.03775402158498764,-0.13483373820781708,-9.859167098999023,0.7350908517837524,0.062091581523418427,0.1641709953546524
1781548220133870,155838758,-0.006123716942965984,0.5694134831428528,0.822019100189209,-0.004046952817589045,0.02440384030342102,-0.1277814656496048,-9.87725830078125,0.6625429391860962,0.027552863582968712,0.21560128033161163
1781548220135872,155855425,-0.0061188037507236,0.5694097876548767,0.8220216631889343,-0.0040471721440553665,0.03629482910037041,-0.1378556191921234,-9.85614013671875,0.7095678448677063,0.01481054536998272,0.09915315359830856
1781548220164022,155872092,-0.006118640769273043,0.5694073438644409,0.8220233917236328,-0.0040466198697686195,0.03846210986375809,-0.13980109989643097,-9.869230270385742,0.7237956523895264,0.04471336677670479,0.10943665355443954
1781548220165949,155888759,-0.006110604386776686,0.5693969130516052,0.8220306038856506,-0.0040495856665074825,0.03248622640967369,-0.14612381160259247,-9.868049621582031,0.7130126953125,-0.014010145328938961,0.04266435280442238
1781548220193870,155905426,-0.006114095915108919,0.5693921446800232,0.8220339417457581,-0.0040465728379786015,0.034177813678979874,-0.14171794056892395,-9.852751731872559,0.724269449710846,0.07488512992858887,0.08948436379432678
1781548220223632,155922093,-0.006113188341259956,0.5693948268890381,0.82203209400177,-0.004042244981974363,0.03112000972032547,-0.1420290768146515,-9.856366157531738,0.6993995308876038,0.05559875816106796,0.15200497210025787
1781548220225792,155938760,-0.006115667521953583,0.5693966150283813,0.8220309019088745,-0.004038001876324415,0.039105966687202454,-0.15081939101219177,-9.859407424926758,0.7132816910743713,0.07436006516218185,0.14515358209609985
1781548220254351,155955427,-0.00612664595246315,0.5693928599357605,0.8220334053039551,-0.004028072115033865,0.039552751928567886,-0.13689005374908447,-9.876574516296387,0.7144214510917664,0.14434677362442017,0.0991915762424469
1781548220256681,155972094,-0.006135707255452871,0.5694006085395813,0.8220280408859253,-0.00403186958283186,0.03657029569149017,-0.13900718092918396,-9.848274230957031,0.7842288017272949,0.08037904649972916,0.1942531019449234
1781548220283844,155988761,-0.006141309160739183,0.5693995952606201,0.8220286965370178,-0.00403084559366107,0.03765733540058136,-0.13032414019107819,-9.859877586364746,0.7436455488204956,0.0792008712887764,0.12353644520044327
1781548220286096,156005428,-0.006146946456283331,0.5693974494934082,0.8220301270484924,-0.004033655859529972,0.03847283869981766,-0.15293292701244354,-9.860987663269043,0.7655572295188904,0.06431989371776581,0.113176129758358
1781548220313966,156022095,-0.006149275228381157,0.5693985819816589,0.8220292925834656,-0.004040976520627737,0.02805534563958645,-0.13250204920768738,-9.876901626586914,0.7780433893203735,0.028154756873846054,0.1406073272228241
1781548220316448,156038762,-0.0061443038284778595,0.5694084167480469,0.822022557258606,-0.004050147719681263,0.029249798506498337,-0.13740861415863037,-9.850634574890137,0.7596918344497681,-0.019849838688969612,0.21339857578277588
1781548220344210,156055429,-0.006140266545116901,0.5694098472595215,0.8220214247703552,-0.004053920973092318,0.020513268187642097,-0.13717259466648102,-9.865930557250977,0.7330418229103088,0.006076612509787083,0.14238739013671875
1781548220373911,156072096,-0.006148463115096092,0.56940758228302,0.8220229148864746,-0.00405604112893343,0.04384799674153328,-0.1432664394378662,-9.873085975646973,0.7717809677124023,0.08148039132356644,0.1114344447851181
1781548220376155,156088763,-0.0061522116884589195,0.5694118738174438,0.8220201134681702,-0.004058608785271645,0.033054884523153305,-0.14915287494659424,-9.85983943939209,0.7566311955451965,0.05494564771652222,0.16577179729938507
1781548220403790,156105430,-0.006160000339150429,0.5694150328636169,0.8220178484916687,-0.004058667924255133,0.04468828812241554,-0.14918506145477295,-9.84753704071045,0.758411169052124,0.08753781020641327,0.15553952753543854
1781548220406411,156122097,-0.00615926505997777,0.5694112181663513,0.822020411491394,-0.004053885582834482,0.019715631380677223,-0.14351320266723633,-9.881597518920898,0.6978628039360046,0.05790390819311142,0.09770604223012924
1781548220433793,156138764,-0.0061680530197918415,0.5694112777709961,0.8220202922821045,-0.004056208301335573,0.04139459878206253,-0.13770902156829834,-9.859868049621582,0.7751362919807434,0.08414411544799805,0.13018293678760529
1781548220435815,156155431,-0.006167703308165073,0.5694009065628052,0.8220275044441223,-0.004065263085067272,0.04411967098712921,-0.13640369474887848,-9.864480972290039,0.7776720523834229,0.005538747180253267,0.04303574189543724
1781548220463643,156172098,-0.006176929455250502,0.5693904161453247,0.8220345973968506,-0.004062982276082039,0.028767012059688568,-0.13884982466697693,-9.84158992767334,0.7511628866195679,0.10401958227157593,0.041306883096694946
1781548220465573,156188765,-0.006178273819386959,0.5693895220756531,0.8220351934432983,-0.004065992310643196,0.028008729219436646,-0.13400404155254364,-9.853411674499512,0.7500230669975281,0.03928348049521446,0.12221740186214447
1781548220493880,156205432,-0.006174467038363218,0.5693871974945068,0.8220369219779968,-0.004062608350068331,0.021964961662888527,-0.15193156898021698,-9.854549407958984,0.6937263011932373,0.035134218633174896,0.10897562652826309
1781548220523653,156222099,-0.006167495623230934,0.56938636302948,0.8220375180244446,-0.004064108710736036,0.03806515038013458,-0.14738623797893524,-9.856163024902344,0.7088891267776489,-0.0017672762041911483,0.1234724149107933
1781548220525591,156238766,-0.006167212035506964,0.5693838000297546,0.8220392465591431,-0.0040637049823999405,0.03329438343644142,-0.13504472374916077,-9.882862091064453,0.724346399307251,0.043394315987825394,0.10982085764408112
1781548220553778,156255433,-0.0061663491651415825,0.569383442401886,0.8220395445823669,-0.004054093733429909,0.030598029494285583,-0.14822663366794586,-9.88620376586914,0.6700089573860168,0.07626821100711823,0.12681487202644348
1781548220555812,156272100,-0.006161745171993971,0.5693863034248352,0.8220376372337341,-0.004053720738738775,0.01942223310470581,-0.1367112398147583,-9.866307258605957,0.7074548006057739,0.01911347731947899,0.1530551016330719
1781548220583769,156288767,-0.006157978903502226,0.5693796873092651,0.8220422863960266,-0.00406247191131115,0.013693375512957573,-0.13063529133796692,-9.877313613891602,0.7626245021820068,-0.012370933778584003,0.07407832145690918
1781548220586175,156305434,-0.006152675021439791,0.5693913698196411,0.8220340013504028,-0.00407628808170557,0.033333826810121536,-0.15040811896324158,-9.876922607421875,0.7848050594329834,-0.03981494531035423,0.22776736319065094
1781548220613773,156322101,-0.0061586094088852406,0.5693904757499695,0.8220345973968506,-0.004075635224580765,0.03080187365412712,-0.1508980691432953,-9.866909980773926,0.7472696900367737,0.07962347567081451,0.1222430020570755
1781548220615774,156338768,-0.006161583587527275,0.5693871974945068,0.8220371007919312,-0.0040643359534442425,0.02874913066625595,-0.14255119860172272,-9.86742115020752,0.6755797266960144,0.10440375655889511,0.10099727660417557
1781548220644443,156355435,-0.0061636450700461864,0.5693897008895874,0.8220351338386536,-0.004076310899108648,0.03017246164381504,-0.16022123396396637,-9.856760025024414,0.8034766912460327,0.008497011847794056,0.15214583277702332
1781548220673759,156372102,-0.006160353776067495,0.5693923830986023,0.8220332860946655,-0.004077456891536713,0.033580586314201355,-0.1444823443889618,-9.863458633422852,0.7213112115859985,0.02061181701719761,0.15217144787311554
1781548220675856,156388769,-0.006155399139970541,0.5693872570991516,0.8220368027687073,-0.004075829870998859,0.04730972647666931,-0.15274697542190552,-9.855767250061035,0.6992459297180176,0.021649133414030075,0.08647488057613373
1781548220703741,156405436,-0.006160693243145943,0.5693853497505188,0.8220382332801819,-0.004077376332134008,0.020334195345640182,-0.15396644175052643,-9.848408699035645,0.7573098540306091,0.06731657683849335,0.11258702725172043
1781548220705705,156422103,-0.0061560929752886295,0.5693806409835815,0.8220416307449341,-0.004086316097527742,0.023892641067504883,-0.13013818860054016,-9.86160659790039,0.7603706121444702,-0.01773679442703724,0.09131567180156708
1781548220733768,156438770,-0.006152634043246508,0.5693830847740173,0.822039783000946,-0.0040940772742033005,0.02584882639348507,-0.14918863773345947,-9.853927612304688,0.7580270767211914,-0.00623669195920229,0.15032732486724854
1781548220735606,156455437,-0.006147872656583786,0.5693773031234741,0.822043776512146,-0.004094850271940231,0.032085731625556946,-0.13326378166675568,-9.827546119689941,0.7137426733970642,0.013273781165480614,0.08209510147571564
1781548220764224,156472104,-0.006144305225461721,0.5693733096122742,0.8220465779304504,-0.004099407233297825,0.045432042330503464,-0.1522999256849289,-9.856215476989746,0.7396370768547058,0.005295425187796354,0.09688643366098404
1781548220766909,156488771,-0.0061449627391994,0.5693732500076294,0.8220466375350952,-0.004102341830730438,0.058656953275203705,-0.13862809538841248,-9.864245414733887,0.7469623684883118,0.035774536430835724,0.12935052812099457
1781548220794007,156505438,-0.006142303813248873,0.5693787932395935,0.8220427632331848,-0.004101914819329977,0.04175562411546707,-0.14192892611026764,-9.864358901977539,0.7149080038070679,0.030421482399106026,0.17602966725826263
1781548220824532,156522105,-0.006140702869743109,0.5693795084953308,0.8220423460006714,-0.004096298012882471,0.03462470695376396,-0.139118030667305,-9.85848617553711,0.6897180080413818,0.05648241192102432,0.13603545725345612
1781548220825609,156538772,-0.006147348787635565,0.5693829655647278,0.8220399022102356,-0.004093607421964407,0.024708015844225883,-0.13990123569965363,-9.862371444702148,0.7385870218276978,0.09180232137441635,0.15911249816417694
1781548220854541,156555439,-0.00614799652248621,0.5693801045417786,0.8220419883728027,-0.004088235087692738,0.0368492417037487,-0.1430661678314209,-9.84890365600586,0.7000911235809326,0.06800811737775803,0.10481356084346771
1781548220855176,156572106,-0.00615656329318881,0.5693774819374084,0.8220435976982117,-0.0041005597449839115,0.022571833804249763,-0.14106085896492004,-9.869786262512207,0.8310360312461853,0.04350957274436951,0.10951349139213562
1781548220883818,156588773,-0.0061464933678507805,0.5693811178207397,0.8220411539077759,-0.0041086021810770035,0.0364878810942173,-0.1468604952096939,-9.858368873596191,0.7339125871658325,-0.04469415545463562,0.16023942828178406
1781548220885575,156605440,-0.006146627943962812,0.56938236951828,0.8220402002334595,-0.004117290489375591,0.03920953720808029,-0.14745774865150452,-9.868790626525879,0.7774542570114136,0.010289901867508888,0.14170867204666138
1781548220914246,156622107,-0.006158777046948671,0.5693841576576233,0.8220388293266296,-0.004125796724110842,0.03258490562438965,-0.13470111787319183,-9.857734680175781,0.8234546780586243,0.07891912758350372,0.14450043439865112
1781548220915927,156638774,-0.00615953654050827,0.5693820714950562,0.8220402002334595,-0.004127363674342632,0.03615187853574753,-0.15811127424240112,-9.868125915527344,0.7397652268409729,0.041498977690935135,0.11244616657495499
1781548220945165,156655441,-0.006168766878545284,0.5693824291229248,0.822039783000946,-0.004132280126214027,0.0300042312592268,-0.1349302977323532,-9.857664108276367,0.7918229103088379,0.07642187923192978,0.13362783193588257
1781548220974239,156672108,-0.006167154759168625,0.5693883895874023,0.8220359086990356,-0.004127943888306618,0.036344993859529495,-0.14031964540481567,-9.8613920211792,0.6969407796859741,0.051680028438568115,0.17939776182174683
1781548220976190,156688775,-0.006170296110212803,0.569389820098877,0.8220347166061401,-0.004129646811634302,0.02511555887758732,-0.14473268389701843,-9.865628242492676,0.7498565912246704,0.05461268126964569,0.14118359982967377
1781548221004181,156705442,-0.006175456568598747,0.569387674331665,0.8220361471176147,-0.004140045028179884,0.03585135191679001,-0.146996408700943,-9.860360145568848,0.8069472312927246,0.03179176151752472,0.11304804682731628
1781548221006136,156722109,-0.006167581770569086,0.5693970322608948,0.822029709815979,-0.00413628201931715,0.03556518629193306,-0.1441175639629364,-9.861894607543945,0.6756181716918945,0.014183033257722855,0.20807117223739624
1781548221033791,156738776,-0.00617124093696475,0.5693925023078918,0.8220328688621521,-0.004140483681112528,0.03838343173265457,-0.15874068439006805,-9.85087776184082,0.7661334276199341,0.04742831364274025,0.09332627058029175
1781548221035605,156755443,-0.006168680265545845,0.5693969130516052,0.8220296502113342,-0.0041518984362483025,0.04078664258122444,-0.1404591202735901,-9.857000350952148,0.7823719382286072,-0.015457263216376305,0.1674366146326065
1781548221064168,156772110,-0.006168652791529894,0.5694025754928589,0.8220258355140686,-0.004157792776823044,0.017802173271775246,-0.1402624100446701,-9.863067626953125,0.7609212398529053,0.020534979179501534,0.17778412997722626
1781548221065910,156788777,-0.00616217777132988,0.5694090723991394,0.8220213651657104,-0.00416331272572279,0.03854793682694435,-0.1441175788640976,-9.88215160369873,0.7337077260017395,-0.0144071439281106,0.1844562441110611
1781548221093979,156805444,-0.006160425953567028,0.5694246888160706,0.8220105767250061,-0.00416423799470067,0.03481080010533333,-0.12693390250205994,-9.861359596252441,0.726049542427063,0.030767250806093216,0.2584257423877716
1781548221124160,156822111,-0.006156768649816513,0.5694279670715332,0.8220082521438599,-0.0041748397052288055,0.03443513065576553,-0.14679256081581116,-9.867530822753906,0.7735356092453003,-0.018569206818938255,0.15792149305343628
1781548221125745,156838778,-0.006150941830128431,0.5694361329078674,0.8220025897026062,-0.004183117300271988,0.03706023469567299,-0.16541746258735657,-9.877931594848633,0.7516879439353943,-0.02145063690841198,0.1999647617340088
1781548221154199,156855445,-0.006155282724648714,0.5694408416748047,0.8219993710517883,-0.00418409239500761,0.030165309086441994,-0.15046533942222595,-9.86467456817627,0.7504072189331055,0.06438391655683517,0.16800010204315186
1781548221156552,156872112,-0.006159525364637375,0.5694368481636047,0.8220019340515137,-0.004182025324553251,0.03703172132372856,-0.1449114829301834,-9.855988502502441,0.7330291271209717,0.0752309039235115,0.09406904876232147
1781548221183780,156888779,-0.0061603812500834465,0.5694383382797241,0.8220009207725525,-0.004185980185866356,0.030387032777071,-0.13544528186321259,-9.857017517089844,0.7537240982055664,0.03285468742251396,0.14357838034629822
1781548221186402,156905446,-0.006154288072139025,0.569446325302124,0.8219953775405884,-0.0041956184431910515,0.028577473014593124,-0.13909301161766052,-9.893563270568848,0.7584112286567688,-0.028327643871307373,0.1975187212228775
1781548221213934,156922113,-0.006149905268102884,0.569459080696106,0.8219865560531616,-0.004198795650154352,0.030122630298137665,-0.1394577920436859,-9.868687629699707,0.7284700274467468,0.006960251834243536,0.23623234033584595
1781548221216219,156938780,-0.006147235631942749,0.5694555044174194,0.8219889998435974,-0.004197266884148121,0.0349503718316555,-0.15492130815982819,-9.865250587463379,0.7090940475463867,0.03405848518013954,0.10057466477155685
1781548221244002,156955447,-0.006082874722778797,0.5695550441741943,0.8219211101531982,-0.004088754300028086,0.030226103961467743,-0.13978321850299835,-9.84708309173584,0.73838210105896,0.02442811243236065,0.10118936747312546
1781548221274240,156972114,-0.006087887100875378,0.5695578455924988,0.8219190835952759,-0.004085377790033817,0.03280827775597572,-0.14601296186447144,-9.859783172607422,0.7294688820838928,0.08495092391967773,0.15163357555866241
1781548221275883,156988781,-0.006083596497774124,0.569561779499054,0.821916401386261,-0.0040885452181100845,0.04680182412266731,-0.1384206861257553,-9.87429141998291,0.7300835847854614,0.006909025367349386,0.1664121001958847
1781548221303728,157005448,-0.006082141771912575,0.5695613622665405,0.8219166994094849,-0.004087481182068586,0.04690898582339287,-0.1547674983739853,-9.87059211730957,0.7173157334327698,0.03916822001338005,0.1279546469449997
1781548221305722,157022115,-0.006079615093767643,0.5695658326148987,0.8219136595726013,-0.0040827286429703236,0.0324038527905941,-0.14340949058532715,-9.871170997619629,0.6923688650131226,0.04782531037926674,0.16785921156406403
1781548221333795,157038782,-0.006084010470658541,0.5695739388465881,0.8219081163406372,-0.004087493754923344,0.040418293327093124,-0.13942201435565948,-9.849010467529297,0.7730745673179626,0.049874331802129745,0.19758278131484985
1781548221335659,157055449,-0.006082318257540464,0.5695669651031494,0.821912944316864,-0.004093192983418703,0.03434582054615021,-0.14661017060279846,-9.87307357788086,0.7549023628234863,0.010943025350570679,0.07265682518482208
1781548221363837,157072116,-0.006080842111259699,0.569564700126648,0.8219144344329834,-0.004093749914318323,0.029897093772888184,-0.14453956484794617,-9.868025779724121,0.7264593839645386,0.03264978900551796,0.11813216656446457
1781548221366400,157088783,-0.0060854582116007805,0.5695685148239136,0.8219116926193237,-0.004096900578588247,0.02382826991379261,-0.13862451910972595,-9.835395812988281,0.7649680972099304,0.05719956010580063,0.16308245062828064
1781548221394495,157105450,-0.006082979496568441,0.5695682764053345,0.8219118118286133,-0.004096609074622393,0.02578803151845932,-0.1314077377319336,-9.857221603393555,0.7177894711494446,0.030370252206921577,0.1316172480583191
1781548221423862,157122117,-0.00608236575499177,0.5695698261260986,0.8219108581542969,-0.004094465170055628,0.03603386506438255,-0.1338932067155838,-9.870593070983887,0.7146391272544861,0.048209499567747116,0.14248985052108765
1781548221425559,157138784,-0.006091313436627388,0.5695658922195435,0.8219134211540222,-0.004098196513950825,0.0327795147895813,-0.13404697179794312,-9.845030784606934,0.7853557467460632,0.07894475013017654,0.09867933392524719
1781548221453805,157155451,-0.006083037704229355,0.5695568919181824,0.8219197392463684,-0.004097177181392908,0.02974689193069935,-0.13604608178138733,-9.857983589172363,0.6912546753883362,-7.683809235459194e-05,0.05479196459054947
1781548221456045,157172118,-0.006074416451156139,0.5695580244064331,0.8219189047813416,-0.0041007897816598415,0.0419381819665432,-0.14288736879825592,-9.871461868286133,0.7158172726631165,-0.019580906257033348,0.14256668090820312
1781548221483707,157188785,-0.006075314711779356,0.5695453882217407,0.8219277858734131,-0.004098378587514162,0.039152294397354126,-0.12535320222377777,-9.87123966217041,0.7193902134895325,0.056969042867422104,0.023339569568634033
1781548221485674,157205452,-0.006076914723962545,0.5695450901985168,0.8219279646873474,-0.004104592837393284,0.026217175647616386,-0.15359452366828918,-9.850863456726074,0.7707054018974304,0.02788582816720009,0.13027259707450867
1781548221513796,157222119,-0.006069920025765896,0.5695458650588989,0.821927547454834,-0.00410897983238101,0.03439953923225403,-0.13728702068328857,-9.860998153686523,0.7266258597373962,-0.013485085219144821,0.13878880441188812
1781548221515350,157238786,-0.006076773628592491,0.5695409178733826,0.8219308257102966,-0.004117774777114391,0.0331764742732048,-0.13077832758426666,-9.839337348937988,0.8059227466583252,0.04722341522574425,0.09258350729942322
1781548221543886,157255453,-0.0060796309262514114,0.5695443749427795,0.8219283819198608,-0.004122075159102678,0.01228052657097578,-0.14298748970031738,-9.89506721496582,0.7646350860595703,0.04266435652971268,0.1595735102891922
1781548221573814,157272120,-0.006079360842704773,0.5695419907569885,0.8219300508499146,-0.0041311620734632015,0.03193553164601326,-0.13244126737117767,-9.874265670776367,0.7795928716659546,0.005974162369966507,0.11338100582361221
1781548221576108,157288787,-0.006080860737711191,0.5695343613624573,0.8219352960586548,-0.004128091502934694,0.033623501658439636,-0.1501828283071518,-9.882269859313965,0.7178791165351868,0.063295379281044,0.07228543609380722
1781548221603778,157305454,-0.0060944631695747375,0.5695288181304932,0.8219389319419861,-0.0041298349387943745,0.024021290242671967,-0.1382669061422348,-9.859770774841309,0.7925145030021667,0.11290717869997025,0.08515582233667374
1781548221606095,157322121,-0.006098504178225994,0.5695270895957947,0.8219401836395264,-0.004130276385694742,0.03388456255197525,-0.14307689666748047,-9.877291679382324,0.747602641582489,0.06421744078397751,0.11817058175802231
1781548221633860,157338788,-0.006093945354223251,0.5695273876190186,0.821940004825592,-0.004128655884414911,0.03100571781396866,-0.13387174904346466,-9.852680206298828,0.7023833990097046,0.023710953071713448,0.13025978207588196
1781548221636101,157355455,-0.006090893875807524,0.5695255398750305,0.8219412565231323,-0.004132814705371857,0.033898867666721344,-0.1498788446187973,-9.849267959594727,0.7409177422523499,0.009534327313303947,0.11650576442480087
1781548221663762,157372122,-0.006099104881286621,0.5695225596427917,0.8219431638717651,-0.004147164057940245,0.024048874154686928,-0.15208707749843597,-9.860908508300781,0.8426257967948914,0.03325168415904045,0.10998734086751938
1781548221666364,157388789,-0.006101435981690884,0.569524347782135,0.8219419717788696,-0.00414522597566247,0.04715214669704437,-0.14384578168392181,-9.85770320892334,0.7274582982063293,0.06405095756053925,0.144987091422081
1781548221694117,157405456,-0.006103798747062683,0.5695210695266724,0.8219442367553711,-0.004149147775024176,0.025258751586079597,-0.14077381789684296,-9.86469554901123,0.760780394077301,0.04107636958360672,0.1138804629445076
1781548221724228,157422123,-0.006111606024205685,0.5695275664329529,0.8219397068023682,-0.004148087464272976,0.0334661491215229,-0.1481408178806305,-9.854321479797363,0.7537881135940552,0.09178951382637024,0.18519902229309082
1781548221726515,157438790,-0.006104742176830769,0.5695329904556274,0.8219360113143921,-0.004147501662373543,0.03244318440556526,-0.1571170687675476,-9.864998817443848,0.698989748954773,0.006934638135135174,0.17401906847953796
1781548221754510,157455457,-0.006104039493948221,0.5695364475250244,0.8219335675239563,-0.0041566938161849976,0.018553363159298897,-0.1489776372909546,-9.877927780151367,0.7784404158592224,0.0034128923434764147,0.1635434925556183
1781548221755044,157472124,-0.0060930741019546986,0.5695371627807617,0.8219330906867981,-0.004155030939728022,0.028477339074015617,-0.1277206689119339,-9.858076095581055,0.6770269274711609,-0.012255676090717316,0.13862232863903046
1781548221784480,157488791,-0.0060935658402740955,0.5695375204086304,0.8219327330589294,-0.00416497653350234,0.026750029996037483,-0.13382883369922638,-9.869616508483887,0.787494421005249,0.007011475972831249,0.1344858855009079
1781548221814146,157505458,-0.006086827255785465,0.569549024105072,0.8219248056411743,-0.004163412377238274,0.02852046862244606,-0.15380553901195526,-9.846704483032227,0.6939184069633484,0.011865082196891308,0.22666597366333008
1781548221815161,157522125,-0.006073168944567442,0.5695412755012512,0.8219304084777832,-0.0041650827042758465,0.024429071694612503,-0.1539914906024933,-9.866119384765625,0.6854918599128723,-0.040813837200403214,0.08025098592042923
1781548221817272,157538792,-0.006070133298635483,0.5695461630821228,0.821927011013031,-0.004168170038610697,0.028562987223267555,-0.1488846391439438,-9.865806579589844,0.7348219156265259,0.014285482466220856,0.17962825298309326
1781548221843959,157555459,-0.006074548698961735,0.5695420503616333,0.8219296932220459,-0.0041839913465082645,0.029008572921156883,-0.14907631278038025,-9.838481903076172,0.8363634347915649,0.005897324066609144,0.09502951800823212
1781548221873830,157572126,-0.006051399279385805,0.5695406794548035,0.8219308853149414,-0.004181277938187122,0.023602968081831932,-0.14831604063510895,-9.857908248901367,0.6235091686248779,-0.07726071029901505,0.1112295612692833
1781548221875943,157588793,-0.006051278673112392,0.5695347785949707,0.8219348192214966,-0.004204393830150366,0.03377918154001236,-0.1563294529914856,-9.848387718200684,0.8597350120544434,-0.04842080548405647,0.0808272659778595
1781548221903868,157605460,-0.006038454826921225,0.5695298314094543,0.8219382762908936,-0.0042076269164681435,0.03615894541144371,-0.14790476858615875,-9.857084274291992,0.6976578235626221,-0.04228656366467476,0.0894971638917923
1781548221905473,157622127,-0.006030515767633915,0.5695416331291199,0.8219302892684937,-0.004203826189041138,0.04007834196090698,-0.14481492340564728,-9.872112274169922,0.6766043901443481,0.013811648823320866,0.22804908454418182
1781548221933916,157638794,-0.00602355832234025,0.5695421695709229,0.8219300508499146,-0.004188115708529949,0.03520440682768822,-0.1520245522260666,-9.871842384338379,0.6134817004203796,0.06531877815723419,0.1328466534614563
1781548221936185,157655461,-0.006023362744599581,0.5695453882217407,0.8219277858734131,-0.004184170626103878,0.027025258168578148,-0.13537731766700745,-9.869504928588867,0.7063918709754944,0.057442884892225266,0.14374488592147827
1781548221963848,157672128,-0.006023109890520573,0.5695435404777527,0.8219290971755981,-0.004187469836324453,0.03626643866300583,-0.15463878214359283,-9.856392860412598,0.7470903396606445,0.028654204681515694,0.11454639583826065
1781548221966012,157688795,-0.00601946422830224,0.569547712802887,0.8219262361526489,-0.0041950116865336895,0.03384863957762718,-0.1395471692085266,-9.87026309967041,0.757706880569458,-0.006889816839247942,0.1583697348833084
1781548221993857,157705462,-0.0060214754194021225,0.5695330500602722,0.821936309337616,-0.00419760774821043,0.025852402672171593,-0.13934333622455597,-9.838997840881348,0.7518799901008606,0.04453407600522041,0.08445145934820175
1781548222023653,157722129,-0.006038138177245855,0.5695206522941589,0.8219447135925293,-0.004200239200145006,0.024171585217118263,-0.14205053448677063,-9.842376708984375,0.8096494078636169,0.1267252266407013,0.06458882242441177
1781548222025567,157738796,-0.006031753960996866,0.5695141553878784,0.8219492435455322,-0.004205069970339537,0.031449105590581894,-0.14375993609428406,-9.867273330688477,0.7320429682731628,-0.012473384849727154,0.060285892337560654
1781548222053700,157755463,-0.006026438437402248,0.5695155262947083,0.8219483494758606,-0.0042024278081953526,0.03437808156013489,-0.13273093104362488,-9.84334945678711,0.6937775015830994,0.023288344964385033,0.13206547498703003
1781548222055191,157772130,-0.00602888036519289,0.5695115327835083,0.8219510316848755,-0.004205408040434122,0.03552604466676712,-0.1332959681749344,-9.836014747619629,0.7559396028518677,0.045097559690475464,0.10364819318056107
1781548222083894,157788797,-0.006033702287822962,0.5695182681083679,0.8219462633132935,-0.004211725201457739,0.036727648228406906,-0.13683642446994781,-9.84753704071045,0.7839086055755615,0.045955583453178406,0.18682540953159332
1781548222086643,157805464,-0.006039309781044722,0.5695193409919739,0.8219454884529114,-0.004207412712275982,0.03595148026943207,-0.14360617101192474,-9.851155281066895,0.7271637320518494,0.09158460795879364,0.1293761432170868
1781548222114810,157822131,-0.006036193575710058,0.5695205330848694,0.8219446539878845,-0.0042089964263141155,0.03211778774857521,-0.14307688176631927,-9.861461639404297,0.7262927889823914,0.019177507609128952,0.12986278533935547
1781548222116191,157838798,-0.006035956088453531,0.5695257186889648,0.8219411969184875,-0.004214747808873653,0.04091896489262581,-0.1395614892244339,-9.867814064025879,0.7611902952194214,0.018934190273284912,0.13405047357082367
1781548222145821,157855465,-0.006045869085937738,0.5695147514343262,0.821948766708374,-0.004216144792735577,0.04297170788049698,-0.14715377986431122,-9.856048583984375,0.7764425277709961,0.09308294206857681,0.046954475343227386
1781548222174338,157872132,-0.006051927339285612,0.5695158839225769,0.8219478726387024,-0.004225397016853094,0.03472837060689926,-0.1482767015695572,-9.855199813842773,0.8054361939430237,0.04137091711163521,0.16067488491535187
1781548222175313,157888799,-0.006048294715583324,0.5695117712020874,0.8219506740570068,-0.0042214542627334595,0.03055162914097309,-0.15395215153694153,-9.864825248718262,0.693124532699585,0.03765707090497017,0.09381291270256042
1781548222204183,157905466,-0.006047841161489487,0.5695018172264099,0.8219575881958008,-0.004219438880681992,0.020645445212721825,-0.13789139688014984,-9.863472938537598,0.7164447903633118,0.048017408698797226,0.06585665047168732
1781548222205978,157922133,-0.006049945950508118,0.5695096850395203,0.8219521045684814,-0.004221091978251934,0.027308136224746704,-0.13732635974884033,-9.852150917053223,0.7468855977058411,0.049118753522634506,0.21151606738567352
1781548222233750,157938800,-0.006044560112059116,0.5695003867149353,0.821958601474762,-0.004213933367282152,0.03101281076669693,-0.14949974417686462,-9.862119674682617,0.6681520342826843,0.04024394974112511,0.06513948738574982
1781548222236332,157955467,-0.006054671946913004,0.56950843334198,0.8219529390335083,-0.004218189977109432,0.030197493731975555,-0.13589945435523987,-9.869871139526367,0.7933597564697266,0.08320926129817963,0.14383453130722046
1781548222263783,157972134,-0.006056600250303745,0.5694962739944458,0.8219614028930664,-0.004220124799758196,0.02856316789984703,-0.14251185953617096,-9.844318389892578,0.7480893135070801,0.04614768177270889,0.06707325577735901
1781548222265860,157988801,-0.006054359953850508,0.5695035457611084,0.8219563364982605,-0.004217640496790409,0.031971294432878494,-0.14114932715892792,-9.852930068969727,0.706558346748352,0.04082024097442627,0.213846817612648
1781548222294002,158005468,-0.006055785808712244,0.5695048570632935,0.8219553232192993,-0.004226149991154671,0.021678969264030457,-0.14810147881507874,-9.851181983947754,0.7834476232528687,0.01746145635843277,0.11872123926877975
1781548222324336,158022135,-0.006062900647521019,0.5695101022720337,0.8219516277313232,-0.004234321881085634,0.005475347861647606,-0.1354023516178131,-9.8568754196167,0.8036561012268066,0.0512574128806591,0.15715311467647552
1781548222325964,158038802,-0.0060623460449278355,0.5695109367370605,0.8219510316848755,-0.0042380644008517265,0.02946426160633564,-0.15090163052082062,-9.850425720214844,0.7487937211990356,0.0248379148542881,0.10708029568195343
1781548222353731,158055469,-0.006063356064260006,0.5695149302482605,0.8219483494758606,-0.004223953001201153,0.02612791210412979,-0.13575997948646545,-9.870951652526855,0.6538729667663574,0.10412202030420303,0.15532180666923523
1781548222355964,158072136,-0.006055476143956184,0.5695276856422424,0.8219396471977234,-0.004221072420477867,0.032218050211668015,-0.13274165987968445,-9.855443954467773,0.6827256679534912,0.009329426102340221,0.1524275690317154
1781548222383885,158088803,-0.006052894983440638,0.5695303082466125,0.8219378590583801,-0.004222281742841005,0.03848356753587723,-0.1357063353061676,-9.856138229370117,0.7266771197319031,0.023147480562329292,0.09899948537349701
1781548222386470,158105470,-0.0060419850051403046,0.5695390701293945,0.8219317197799683,-0.0042372699826955795,0.030258290469646454,-0.1404913067817688,-9.87501335144043,0.7716017365455627,-0.07706860452890396,0.18788836896419525
1781548222414288,158122137,-0.0060446555726230145,0.5695368647575378,0.8219332695007324,-0.00423827301710844,0.02958238683640957,-0.1377018690109253,-9.876315116882324,0.7457200884819031,0.05420287325978279,0.124484121799469
1781548222416478,158138804,-0.006043002940714359,0.5695345401763916,0.8219349384307861,-0.004241096321493387,0.04393714293837547,-0.1250384896993637,-9.854151725769043,0.7391248345375061,0.02287854254245758,0.13951876759529114
1781548222444072,158155471,-0.006036197766661644,0.5695322751998901,0.8219364881515503,-0.004252429120242596,0.023306142538785934,-0.14333081245422363,-9.851310729980469,0.7671194672584534,-0.0399814210832119,0.11247176676988602
1781548222473895,158172138,-0.006034957244992256,0.5695323944091797,0.8219364285469055,-0.004247837234288454,0.03136691451072693,-0.13472644984722137,-9.861817359924316,0.6991946697235107,0.05351133272051811,0.10029292851686478
1781548222475801,158188805,-0.006025737151503563,0.5695353746414185,0.8219343423843384,-0.0042484356090426445,0.032196592539548874,-0.13933618366718292,-9.866609573364258,0.6969664096832275,-0.011282394640147686,0.15546269714832306
1781548222503745,158205472,-0.006032509729266167,0.5695376992225647,0.8219326734542847,-0.004241788759827614,0.021038828417658806,-0.14042693376541138,-9.849600791931152,0.7187372446060181,0.10745168477296829,0.15420767664909363
1781548222505957,158222139,-0.006034974940121174,0.5695328116416931,0.8219361901283264,-0.004240390844643116,0.03774329274892807,-0.14263345301151276,-9.864020347595215,0.7315818667411804,0.062091581523418427,0.09054729342460632
1781548222534214,158238806,-0.00603239331394434,0.5695327520370483,0.8219362497329712,-0.004243532195687294,0.026907384395599365,-0.1270519196987152,-9.854413986206055,0.7373703718185425,0.01625766046345234,0.14095307886600494
1781548222535952,158255473,-0.0060298205353319645,0.5695318579673767,0.8219367861747742,-0.0042291972786188126,0.027647659182548523,-0.14024096727371216,-9.864224433898926,0.6388127207756042,0.08433621376752853,0.11037150770425797
1781548222563771,158272140,-0.006027414463460445,0.5695265531539917,0.821940541267395,-0.004231759812682867,0.0332588367164135,-0.1400049477815628,-9.873032569885254,0.7349243760108948,0.019331185147166252,0.10850179195404053
1781548222566285,158288807,-0.006022240500897169,0.5695386528968811,0.8219321966171265,-0.00423541571944952,0.029836449772119522,-0.14425347745418549,-9.848943710327148,0.7304549813270569,-0.0010117015335708857,0.15232513844966888
1781548222594693,158305474,-0.006012328434735537,0.5695405006408691,0.8219310641288757,-0.0042174202390015125,0.028237732127308846,-0.13041354715824127,-9.847322463989258,0.5892778038978577,0.05749410390853882,0.1432582437992096
1781548222623794,158322141,-0.006016615778207779,0.5695345997810364,0.8219350576400757,-0.004223925061523914,0.0316065214574337,-0.13318154215812683,-9.871465682983398,0.7830378413200378,0.04256189987063408,0.16696277260780334
1781548222625812,158338808,-0.0060174367390573025,0.5695244073867798,0.821942150592804,-0.004225522745400667,0.030844787135720253,-0.12981274724006653,-9.85860538482666,0.741750180721283,0.042139291763305664,0.14588354527950287
1781548222653781,158355475,-0.006016762461513281,0.5695317983627319,0.8219370245933533,-0.004224221687763929,0.037281960248947144,-0.14170721173286438,-9.862017631530762,0.719748854637146,0.04470055550336838,0.19584108889102936
1781548222655393,158372142,-0.006010986864566803,0.5695312023162842,0.8219375610351562,-0.004218683112412691,0.030258290469646454,-0.14573760330677032,-9.893473625183105,0.6761048436164856,0.03179176524281502,0.1136755719780922
1781548222683778,158388809,-0.006020482163876295,0.569542646408081,0.8219295740127563,-0.004223141353577375,0.03051220066845417,-0.14474698901176453,-9.852361679077148,0.7921432256698608,0.07963628321886063,0.21336019039154053
1781548222685675,158405476,-0.0060193222016096115,0.5695451498031616,0.8219278454780579,-0.0042256698943674564,0.043286412954330444,-0.14720742404460907,-9.87686538696289,0.7394706010818481,0.026963768526911736,0.1772078573703766
1781548222714232,158422143,-0.006016517523676157,0.569544792175293,0.8219280242919922,-0.0042328299023211,0.03380231186747551,-0.13343901932239532,-9.865300178527832,0.7594228982925415,-0.0011013459879904985,0.1204117015004158
1781548222716039,158438810,-0.0060219974257051945,0.569537878036499,0.821932852268219,-0.004234740044921637,0.03114161267876625,-0.12981989979743958,-9.868729591369629,0.7622019052505493,0.06604874134063721,0.07584560662508011
1781548222744382,158455477,-0.006027454510331154,0.5695538520812988,0.8219216465950012,-0.004239674191921949,0.0204129908233881,-0.13007381558418274,-9.875041961669922,0.7789782285690308,0.05504808947443962,0.2432245910167694
1781548222774235,158472144,-0.00602973997592926,0.5695438385009766,0.8219284415245056,-0.0042479755356907845,0.014762668870389462,-0.1301274597644806,-9.84804916381836,0.7858296036720276,0.023173091933131218,0.07865019887685776
1781548222776171,158488811,-0.006022119894623756,0.5695500373840332,0.8219243288040161,-0.004232895560562611,0.024067874997854233,-0.14639919996261597,-9.879190444946289,0.614890456199646,0.059030864387750626,0.1642606258392334
1781548222803655,158505478,-0.006018574815243483,0.5695552229881287,0.8219207525253296,-0.0042279381304979324,0.01993735507130623,-0.1386924684047699,-9.847455024719238,0.6880019307136536,0.04247226193547249,0.16387644410133362
1781548222805628,158522145,-0.006018614862114191,0.5695660710334778,0.8219133615493774,-0.004213239066302776,0.027551215142011642,-0.14195753633975983,-9.855212211608887,0.6474058628082275,0.10002399235963821,0.1266355812549591
1781548222833723,158538812,-0.006023397669196129,0.5695653557777405,0.8219138383865356,-0.004209580831229687,0.034249238669872284,-0.14345598220825195,-9.851441383361816,0.7282010316848755,0.08386237919330597,0.09616928547620773
1781548222835648,158555479,-0.006017479579895735,0.5695692300796509,0.8219111561775208,-0.004216388333588839,0.03557968512177467,-0.13761961460113525,-9.855472564697266,0.7452718615531921,-0.017173312604427338,0.1489698588848114
1781548222863669,158572146,-0.006028406322002411,0.5695662498474121,0.8219131827354431,-0.004215986467897892,0.031549300998449326,-0.1384028047323227,-9.852150917053223,0.7706669569015503,0.10596613585948944,0.0983719751238823
1781548222865347,158588813,-0.006036404985934496,0.5695637464523315,0.8219149112701416,-0.004213686566799879,0.03688857704401016,-0.13440817594528198,-9.82798957824707,0.748486340045929,0.09679680317640305,0.09629735350608826
1781548222894762,158605480,-0.006031970027834177,0.5695825815200806,0.821901798248291,-0.004217882174998522,0.03693864494562149,-0.13646091520786285,-9.860021591186523,0.736512303352356,0.0011973936343565583,0.1949702799320221
1781548222923883,158622147,-0.00603755097836256,0.5695829391479492,0.8219014406204224,-0.004222485702484846,0.027515240013599396,-0.15049393475055695,-9.830044746398926,0.7781714797019958,0.055842094123363495,0.09218651056289673
1781548222925968,158638814,-0.006040214095264673,0.5695866346359253,0.821898877620697,-0.004228657577186823,0.01497016940265894,-0.15340499579906464,-9.856489181518555,0.7753155827522278,0.03390480950474739,0.1546686887741089
1781548222953902,158655481,-0.0060394746251404285,0.5695751905441284,0.8219068050384521,-0.004221216309815645,0.05061771720647812,-0.1446647346019745,-9.865129470825195,0.6850948929786682,0.06789287179708481,0.08401605486869812
1781548222956557,158672148,-0.0060357628390192986,0.5695799589157104,0.8219035267829895,-0.004218616988509893,0.03945629671216011,-0.14759722352027893,-9.873350143432617,0.7012180685997009,0.03127950802445412,0.09248103946447372
1781548222983891,158688815,-0.006024399306625128,0.569582998752594,0.8219015002250671,-0.004231296479701996,0.03261500969529152,-0.12685522437095642,-9.853960037231445,0.7571178078651428,-0.0705886036157608,0.17419835925102234
1781548222986102,158705482,-0.006006957497447729,0.5695796608924866,0.8219040036201477,-0.00423066783696413,0.036488041281700134,-0.1448042094707489,-9.837359428405762,0.6583168506622314,-0.053556159138679504,0.09629735350608826
1781548223013902,158722149,-0.006001263856887817,0.569581151008606,0.8219029307365417,-0.004231623373925686,0.03905576094985008,-0.13856729865074158,-9.856091499328613,0.7131792902946472,0.007165153045207262,0.1546943038702011
1781548223015558,158738816,-0.005989745259284973,0.56956946849823,0.8219111561775208,-0.004230717197060585,0.029228342697024345,-0.12967327237129211,-9.874312400817871,0.6801772713661194,-0.019568102434277534,0.01957450620830059
1781548223044152,158755483,-0.005983383394777775,0.5695784687995911,0.8219051361083984,-0.004217515233904123,0.028738198801875114,-0.13380379974842072,-9.855767250061035,0.6302196979522705,0.059530314058065414,0.23611705005168915
1781548223074421,158772150,-0.005981056950986385,0.569556713104248,0.8219200372695923,-0.004227288067340851,0.03315501660108566,-0.14128164947032928,-9.848527908325195,0.7756357789039612,-0.00738926324993372,0.1266227811574936
1781548223075509,158788817,-0.005987051408737898,0.5695594549179077,0.8219181299209595,-0.004219272639602423,0.03594445809721947,-0.1325807273387909,-9.856492042541504,0.7082999348640442,0.10811760276556015,0.14497427642345428
1781548223104054,158805484,-0.005984492599964142,0.569564163684845,0.821914792060852,-0.004235807340592146,0.033580586314201355,-0.15631602704524994,-9.854961395263672,0.8135810494422913,-0.036318808794021606,0.15562915802001953
1781548223105940,158822151,-0.0059761242009699345,0.569564700126648,0.8219146132469177,-0.004231676924973726,0.04985590651631355,-0.15381267666816711,-9.86181354522705,0.6738765239715576,0.011916307732462883,0.14877775311470032
1781548223134094,158838818,-0.005977895576506853,0.5695591568946838,0.8219181895256042,-0.0042399936355650425,0.03865880146622658,-0.13723337650299072,-9.848356246948242,0.7839342355728149,0.020688654854893684,0.1412092000246048
1781548223137002,158855485,-0.005982249043881893,0.569559633731842,0.8219179511070251,-0.004243513103574514,0.03554749861359596,-0.13951142132282257,-9.853506088256836,0.7669786810874939,0.053716231137514114,0.14225931465625763
1781548223163675,158872152,-0.005986643489450216,0.569564938545227,0.8219141364097595,-0.0042572021484375,0.04524051770567894,-0.13456857204437256,-9.881306648254395,0.8244919180870056,0.014375126920640469,0.18012769520282745
1781548223165398,158888819,-0.005985594354569912,0.5695542097091675,0.8219215869903564,-0.00425687013193965,0.043447259813547134,-0.1326558142900467,-9.861172676086426,0.7241158485412598,0.038092486560344696,0.08296594023704529
1781548223193921,158905486,-0.005993743427097797,0.5695763230323792,0.8219062089920044,-0.004252769518643618,0.052302032709121704,-0.1466352343559265,-9.845148086547852,0.7389456033706665,0.10503128916025162,0.23584814369678497
1781548223223888,158922153,-0.00600852444767952,0.569554328918457,0.8219214081764221,-0.004246260970830917,0.041523341089487076,-0.14424274861812592,-9.858341217041016,0.7510091662406921,0.1520305722951889,0.058070387691259384
1781548223226233,158938820,-0.006001733709126711,0.5695489048957825,0.8219251036643982,-0.004260027781128883,0.03942418098449707,-0.13868175446987152,-9.854400634765625,0.7816803455352783,-0.050136860460042953,0.06750867515802383
1781548223253909,158955487,-0.00601246627047658,0.5695740580558777,0.8219077587127686,-0.004225548822432756,0.02908886969089508,-0.13993699848651886,-9.844804763793945,0.7113350629806519,-0.0024075936526060104,0.1256110817193985
1781548223256202,158972154,-0.006017711013555527,0.569583535194397,0.8219011425971985,-0.0042285313829779625,0.03345899656414986,-0.12477387487888336,-9.864063262939453,0.76772141456604,0.06046518310904503,0.17759205400943756
1781548223283888,158988821,-0.006019181571900845,0.5695839524269104,0.8219009041786194,-0.0042294226586818695,0.027926603332161903,-0.12636886537075043,-9.853144645690918,0.7412123084068298,0.0471721850335598,0.12789060175418854
1781548223286584,159005488,-0.0060179647989571095,0.5695857405662537,0.8218996524810791,-0.004238867200911045,0.0305014718323946,-0.1450473964214325,-9.851903915405273,0.7787349224090576,-0.0010245078010484576,0.17176514863967896
1781548223314100,159022155,-0.006021711975336075,0.5695853233337402,0.8218997716903687,-0.004244181327521801,0.02001960761845112,-0.136940136551857,-9.844344139099121,0.7754437327384949,0.04178071767091751,0.06120794638991356
1781548223316662,159038822,-0.006024336442351341,0.5695793628692627,0.8219039440155029,-0.004245857708156109,0.04546789824962616,-0.1279781609773636,-9.854625701904297,0.7505353093147278,0.049912746995687485,0.052217885851860046
1781548223343893,159055489,-0.006028227973729372,0.5695875883102417,0.8218981623649597,-0.004252365790307522,0.02109604701399803,-0.13992269337177277,-9.863973617553711,0.7827305197715759,0.038489487022161484,0.13589459657669067
1781548223373764,159072156,-0.006032728124409914,0.5695914626121521,0.8218954205513,-0.0042582349851727486,0.01789194718003273,-0.1309821605682373,-9.87279987335205,0.7810783982276917,0.04512316733598709,0.17002348601818085
1781548223375522,159088823,-0.006035791710019112,0.5695909261703491,0.8218957781791687,-0.004259177483618259,0.03264375403523445,-0.14456459879875183,-9.873712539672852,0.7478075623512268,0.05598295107483864,0.1287614405155182
1781548223403645,159105490,-0.0060355886816978455,0.5695925951004028,0.8218945860862732,-0.004258990287780762,0.022244170308113098,-0.1336178332567215,-9.865229606628418,0.7284315824508667,0.042254552245140076,0.16067487001419067
1781548223405607,159122157,-0.006048508454114199,0.5695867538452148,0.8218986392021179,-0.004256100859493017,0.05097883567214012,-0.1404626965522766,-9.895347595214844,0.7647375464439392,0.12666119635105133,0.10313593596220016
1781548223433788,159138824,-0.006043947767466307,0.5695847272872925,0.8218998312950134,-0.004255983978509903,0.023420581594109535,-0.1464635729789734,-9.850749015808105,0.7122827768325806,0.016398530453443527,0.0757303461432457
1781548223436161,159155491,-0.006046812981367111,0.5695743560791016,0.8219071626663208,-0.0042578051798045635,0.02939632348716259,-0.14834105968475342,-9.857688903808594,0.7518928050994873,0.051526349037885666,0.09798778593540192
1781548223463761,159172158,-0.0060386075638234615,0.569596529006958,0.8218917846679688,-0.0042594801634550095,0.04067234322428703,-0.14311982691287994,-9.841551780700684,0.7083640694618225,-0.011717810295522213,0.1412220299243927
1781548223466533,159188825,-0.006048219278454781,0.5695952773094177,0.8218926191329956,-0.004261074587702751,0.03707108274102211,-0.14353106915950775,-9.854093551635742,0.7772237658500671,0.09022713452577591,0.11098622530698776
1781548223494018,159205492,-0.006052376236766577,0.5695853233337402,0.8218994736671448,-0.004258317872881889,0.025133585557341576,-0.14231516420841217,-9.877083778381348,0.7309287786483765,0.07698537409305573,0.11568615585565567
1781548223523773,159222159,-0.006048894952982664,0.5696138739585876,0.8218796849250793,-0.00426032580435276,0.037828922271728516,-0.13927537202835083,-9.857828140258789,0.7286492586135864,0.014029355719685555,0.1952904313802719
1781548223525856,159238826,-0.006044405046850443,0.5696119666099548,0.8218809962272644,-0.004262400791049004,0.030415760353207588,-0.12666569650173187,-9.87658405303955,0.7246792316436768,0.008753139525651932,0.11818338930606842
1781548223553764,159255493,-0.006040020380169153,0.5696079134941101,0.8218839764595032,-0.004267751704901457,0.03202493488788605,-0.1457948237657547,-9.868640899658203,0.7436967492103577,-0.00373945408500731,0.09016309678554535
1781548223555784,159272160,-0.006035587750375271,0.5696076154708862,0.821884036064148,-0.0042698802426457405,0.024450620636343956,-0.14919938147068024,-9.85983657836914,0.7253835797309875,0.008407367393374443,0.09131567180156708
1781548223583741,159288827,-0.006031641270965338,0.5695929527282715,0.8218943476676941,-0.004271781072020531,0.01755550503730774,-0.15101605653762817,-9.850961685180664,0.7255245447158813,0.012940814718604088,0.09680959582328796
1781548223586158,159305494,-0.0060347882099449635,0.5695968270301819,0.821891725063324,-0.004274535924196243,0.02886356972157955,-0.1350983828306198,-9.877416610717773,0.7583855986595154,0.04945171996951103,0.15568040311336517
1781548223613727,159322161,-0.006026030983775854,0.5695943832397461,0.8218932747840881,-0.004273927304893732,0.0409332700073719,-0.12450923025608063,-9.860007286071777,0.6928683519363403,-0.0049432506784796715,0.10855301469564438
1781548223615275,159338828,-0.006027593277394772,0.5696043968200684,0.821886420249939,-0.004275156185030937,0.03828345611691475,-0.14216496050357819,-9.862289428710938,0.7438375353813171,0.04608364775776863,0.15422046184539795
1781548223644573,159355495,-0.00603410555049777,0.56960129737854,0.8218884468078613,-0.00427598599344492,0.03765746206045151,-0.14159634709358215,-9.863180160522461,0.7609853148460388,0.07537176460027695,0.08237683773040771
1781548223673857,159372162,-0.006023030262440443,0.5696024894714355,0.8218876123428345,-0.004279499873518944,0.015556502155959606,-0.14182165265083313,-9.865221977233887,0.7071090340614319,-0.03418014943599701,0.12586721777915955
1781548223675709,159388829,-0.006030270829796791,0.5695968866348267,0.8218914270401001,-0.004282519221305847,0.026517577469348907,-0.12140866369009018,-9.8632230758667,0.7756999135017395,0.07213176786899567,0.16036751866340637
1781548223703798,159405496,-0.006033598445355892,0.5696012377738953,0.8218885064125061,-0.004283744841814041,0.04740995168685913,-0.14215780794620514,-9.867264747619629,0.7504072189331055,0.05654643476009369,0.16664263606071472
1781548223705822,159422163,-0.006046526599675417,0.5695765614509583,0.8219054937362671,-0.004281844478100538,0.03755732998251915,-0.12993791699409485,-9.832685470581055,0.7698344588279724,0.1240743100643158,0.12043731659650803
1781548223735135,159438830,-0.006041867192834616,0.5695648789405823,0.8219137787818909,-0.004274119157344103,0.035880088806152344,-0.14220072329044342,-9.841751098632812,0.6687155961990356,0.04617329686880112,0.07882948964834213
1781548223737149,159455497,-0.006042374763637781,0.569564163684845,0.8219140768051147,-0.004274667240679264,0.03757878765463829,-0.1408095806837082,-9.867253303527832,0.735859215259552,0.042805224657058716,0.11682591587305069
1781548223763753,159472164,-0.0060386573895812035,0.5695793032646179,0.821903645992279,-0.004284658003598452,0.03511478006839752,-0.148630753159523,-9.861817359924316,0.7724341154098511,-0.017570311203598976,0.21675384044647217
1781548223766241,159488831,-0.0060321311466395855,0.5695765614509583,0.8219055533409119,-0.004290770273655653,0.021679101511836052,-0.13976891338825226,-9.859972953796387,0.7396370768547058,-0.018428334966301918,0.13025978207588196
1781548223793981,159505498,-0.0060427687130868435,0.5695844292640686,0.8219001293182373,-0.004289170727133751,0.0341314971446991,-0.13418643176555634,-9.859389305114746,0.7632647752761841,0.10870669782161713,0.16816656291484833
1781548223823748,159522165,-0.006048282142728567,0.5695664882659912,0.8219124674797058,-0.004288090858608484,0.02741878107190132,-0.13437598943710327,-9.85498332977295,0.7455921173095703,0.07891913503408432,0.14740750193595886
1781548223825523,159538832,-0.006038492079824209,0.5695661902427673,0.8219127655029297,-0.00428007310256362,0.03970681503415108,-0.14771167933940887,-9.856342315673828,0.6465733647346497,0.019459247589111328,0.20999211072921753
1781548223853744,159555499,-0.006043510045856237,0.5695584416389465,0.8219180703163147,-0.0042899916879832745,0.03495027497410774,-0.132416233420372,-9.838929176330566,0.805974006652832,0.03261137008666992,0.1614176332950592
1781548223855520,159572166,-0.006038418039679527,0.5695399641990662,0.8219308257102966,-0.004289211239665747,0.02246573381125927,-0.14457890391349792,-9.83518123626709,0.7060460448265076,0.017000427469611168,0.08647487312555313
1781548223883749,159588833,-0.006031714845448732,0.5695282816886902,0.8219390511512756,-0.004282359499484301,0.025956038385629654,-0.13496246933937073,-9.867770195007324,0.6656420230865479,0.03118986263871193,0.08155723661184311
1781548223885749,159605500,-0.006009883712977171,0.5695156455039978,0.8219479918479919,-0.0042859637178480625,0.02647823840379715,-0.14255119860172272,-9.866912841796875,0.6656932234764099,-0.09552256762981415,0.05670011043548584
1781548223913772,159622167,-0.006006096955388784,0.5695182085037231,0.8219462037086487,-0.00428885268047452,0.045968569815158844,-0.1266549527645111,-9.861778259277344,0.7320429086685181,0.009867291897535324,0.1661047637462616
1781548223915325,159638834,-0.006003472022712231,0.5695209503173828,0.8219442367553711,-0.004301500041037798,0.027729911729693413,-0.13790927827358246,-9.864202499389648,0.7919638752937317,-0.022372690960764885,0.1271350383758545
1781548223944866,159655501,-0.006004148628562689,0.5695313811302185,0.8219369053840637,-0.004309163894504309,0.032361265271902084,-0.13632860779762268,-9.85825252532959,0.7768011093139648,0.0157582126557827,0.1542845070362091
1781548223974410,159672168,-0.006007613148540258,0.5695465803146362,0.8219263553619385,-0.004314026795327663,0.034335166215896606,-0.13020256161689758,-9.861202239990234,0.7721267342567444,0.04212648421525955,0.14961017668247223
1781548223975706,159688835,-0.006014728453010321,0.5695298314094543,0.8219379186630249,-0.00430770218372345,0.03948482498526573,-0.13112521171569824,-9.86294937133789,0.7227071523666382,0.10743886232376099,0.07885509729385376
1781548224003757,159705502,-0.00601336220279336,0.5695488452911377,0.8219247460365295,-0.004315713886171579,0.031781986355781555,-0.13702954351902008,-9.844147682189941,0.7707181572914124,0.00318237766623497,0.21661299467086792
1781548224005892,159722169,-0.006017004605382681,0.5695590972900391,0.821917712688446,-0.0043146382085978985,0.04225289076566696,-0.1484304815530777,-9.869452476501465,0.7391120195388794,0.0667530968785286,0.15726836025714874
1781548224033675,159738836,-0.006009255535900593,0.5695502758026123,0.8219238519668579,-0.004316528327763081,0.03346606343984604,-0.13103221356868744,-9.853078842163086,0.7111429572105408,-0.009092507883906364,0.08643645793199539
1781548224035822,159755503,-0.006004314869642258,0.5695340037345886,0.8219351768493652,-0.004312719684094191,0.028659725561738014,-0.14778319001197815,-9.869781494140625,0.6896026730537415,0.02984519861638546,0.113265760242939
1781548224063754,159772170,-0.005992298014461994,0.5695469379425049,0.8219262957572937,-0.004313429351896048,0.020012248307466507,-0.1378377228975296,-9.84573745727539,0.687592089176178,-0.02805871143937111,0.2210952192544937
1781548224065688,159788837,-0.005993345286697149,0.5695416927337646,0.821929931640625,-0.004311163444072008,0.03733202815055847,-0.13336391746997833,-9.877788543701172,0.7222077250480652,0.05661046877503395,0.0823640301823616
1781548224093906,159805504,-0.005989937577396631,0.5695396065711975,0.8219313621520996,-0.004312453325837851,0.03468548133969307,-0.13839562237262726,-9.865095138549805,0.724692165851593,0.018255451694130898,0.15217144787311554
1781548224124615,159822171,-0.0059843044728040695,0.5695369243621826,0.8219332098960876,-0.004312251694500446,0.04072597622871399,-0.1338324099779129,-9.868640899658203,0.7075827717781067,0.011250377632677555,0.13032381236553192
1781548224127655,159838838,-0.005987201351672411,0.5695251822471619,0.8219413757324219,-0.004311676137149334,0.022140299901366234,-0.149574875831604,-9.872037887573242,0.7387791275978088,0.061092693358659744,0.1047111228108406
1781548224154809,159855505,-0.0059945834800601006,0.5695154070854187,0.8219481110572815,-0.004319351632148027,0.042989589273929596,-0.12907247245311737,-9.842619895935059,0.803259015083313,0.05340887978672981,0.061489686369895935
1781548224158517,159872172,-0.005996484775096178,0.5695568919181824,0.8219192624092102,-0.004327958915382624,0.029349932447075844,-0.13384313881397247,-9.856209754943848,0.7881603837013245,0.01661623828113079,0.12180759757757187
1781548224184386,159888839,-0.005995204206556082,0.5695620775222778,0.8219156861305237,-0.004338181111961603,0.03376669064164162,-0.14676755666732788,-9.870976448059082,0.7837805151939392,-0.005455504637211561,0.13096413016319275
1781548224185442,159905506,-0.005998157896101475,0.5695599317550659,0.8219171762466431,-0.004336187615990639,0.03733918070793152,-0.14431069791316986,-9.861924171447754,0.7312745451927185,0.06624084711074829,0.09438919275999069
1781548224213888,159922173,-0.006003616377711296,0.5695594549179077,0.8219174742698669,-0.004336835816502571,0.03274033963680267,-0.1463884562253952,-9.852630615234375,0.7557987570762634,0.07078710198402405,0.15496324002742767
1781548224216245,159938840,-0.006003957241773605,0.5695964694023132,0.8218917846679688,-0.0043349964544177055,0.02417534962296486,-0.1401265263557434,-9.85153579711914,0.7225150465965271,0.049861520528793335,0.18887443840503693
1781548224244052,159955507,-0.006002694834023714,0.5696082711219788,0.8218836784362793,-0.004320397507399321,0.025151465088129044,-0.13807378709316254,-9.865986824035645,0.6434743404388428,0.09219931811094284,0.18432819843292236
1781548224274216,159972174,-0.006001296918839216,0.5696052312850952,0.8218858242034912,-0.004323176573961973,0.02695387415587902,-0.1456589251756668,-9.861638069152832,0.7412251234054565,0.02312186360359192,0.10549230128526688
1781548224276209,159988841,-0.005998185835778713,0.5696198344230652,0.8218756318092346,-0.0043248082511126995,0.04529266431927681,-0.14034825563430786,-9.83759593963623,0.7279961705207825,0.018076162785291672,0.18804201483726501
1781548224304414,160005508,-0.006009170785546303,0.5696080923080444,0.8218836188316345,-0.00433021504431963,0.03899138793349266,-0.1338789016008377,-9.866044044494629,0.8041812181472778,0.08367028832435608,0.13178375363349915
1781548224305882,160022175,-0.006006704643368721,0.5696119070053101,0.8218809962272644,-0.004327038768678904,0.02617078274488449,-0.1459307223558426,-9.87283992767334,0.7035744190216064,0.039949409663677216,0.0998062789440155
1781548224334302,160038842,-0.0060137975960969925,0.5696007609367371,0.8218886852264404,-0.004322937224060297,0.03422442451119423,-0.1414962112903595,-9.840078353881836,0.7352574467658997,0.0986921414732933,0.11712048202753067
1781548224336684,160055509,-0.006023422349244356,0.5696125626564026,0.8218804597854614,-0.004311820026487112,0.029535729438066483,-0.13774120807647705,-9.857381820678711,0.7059435844421387,0.1398773491382599,0.16939598321914673
1781548224364433,160072176,-0.00602432806044817,0.5696083903312683,0.8218833804130554,-0.004306712653487921,0.044380731880664825,-0.14599865674972534,-9.854654312133789,0.7055721282958984,0.0673677921295166,0.12676364183425903
1781548224366533,160088843,-0.006025928538292646,0.5696125030517578,0.8218805193901062,-0.004303844179958105,0.036055322736501694,-0.13799868524074554,-9.850197792053223,0.7209270000457764,0.062475766986608505,0.15883074700832367
1781548224393992,160105510,-0.006023101042956114,0.5696101188659668,0.8218821287155151,-0.004317781422287226,0.038211625069379807,-0.13759812712669373,-9.865628242492676,0.7985334992408752,-0.02831484004855156,0.13577932119369507
1781548224424401,160122177,-0.006021301727741957,0.5696205496788025,0.8218750953674316,-0.00430214311927557,0.029382307082414627,-0.13850291073322296,-9.848925590515137,0.6353166699409485,0.09367205947637558,0.21286074817180634
1781548224425443,160138844,-0.0060132225044071674,0.5696262717247009,0.8218711614608765,-0.004307209514081478,0.03629135340452194,-0.1635793000459671,-9.845584869384766,0.7278937101364136,-0.023243524134159088,0.17103518545627594
1781548224454420,160155511,-0.006011565215885639,0.5696123838424683,0.8218807578086853,-0.004307188093662262,0.0420096255838871,-0.14634911715984344,-9.848733901977539,0.7242183089256287,0.03285469114780426,0.08168530464172363
1781548224455589,160172178,-0.006009797565639019,0.5696085095405579,0.8218835592269897,-0.004297500476241112,0.029328476637601852,-0.13755881786346436,-9.866219520568848,0.6692150831222534,0.07008275389671326,0.12280648201704025
1781548224483799,160188845,-0.006004479248076677,0.5696114897727966,0.8218815922737122,-0.004299044609069824,0.016883274540305138,-0.14554090797901154,-9.866873741149902,0.7193263173103333,0.0048472038470208645,0.06576701253652573
1781548224486501,160205512,-0.0060095591470599174,0.5696038007736206,0.8218867182731628,-0.004297791048884392,0.03768598288297653,-0.13431519269943237,-9.852739334106445,0.7437992095947266,0.07546141743659973,0.08659014105796814
1781548224514605,160222179,-0.0059900349006056786,0.5696021318435669,0.8218880295753479,-0.004308197181671858,0.03885549306869507,-0.15285424888134003,-9.860937118530273,0.7134993672370911,-0.10941745340824127,0.09994715452194214
1781548224515579,160238846,-0.005984642077237368,0.5696216225624084,0.8218746185302734,-0.004310816526412964,0.019987422972917557,-0.13620343804359436,-9.841350555419922,0.7252556681632996,-5.1225397328380495e-05,0.11680030822753906
1781548224543909,160255513,-0.005991372279822826,0.5696308612823486,0.8218681216239929,-0.004308029543608427,0.022390633821487427,-0.13906797766685486,-9.858226776123047,0.7415068745613098,0.09129006415605545,0.194778174161911
1781548224573742,160272180,-0.006000973284244537,0.5696265697479248,0.8218711018562317,-0.00430282112210989,0.019543973729014397,-0.1395900994539261,-9.85919189453125,0.7391120195388794,0.11671065539121628,0.11568615585565567
1781548224575478,160288847,-0.006003217771649361,0.5696260929107666,0.8218713998794556,-0.00431003887206316,0.020169809460639954,-0.13659323751926422,-9.859356880187988,0.7805406451225281,0.02669483795762062,0.14725381135940552
1781548224604297,160305514,-0.005998613778501749,0.5696423053741455,0.8218602538108826,-0.004306619521230459,0.037664614617824554,-0.1368793398141861,-9.871851921081543,0.6938031315803528,0.02919207140803337,0.1849813014268875
1781548224606927,160322181,-0.005995816085487604,0.5696521997451782,0.8218533396720886,-0.004306002054363489,0.029854178428649902,-0.13339610397815704,-9.867349624633789,0.7169698476791382,0.02783459983766079,0.11697959899902344
1781548224634381,160338848,-0.005985334515571594,0.5696494579315186,0.8218553066253662,-0.004307741764932871,0.037904221564531326,-0.1492244005203247,-9.857973098754883,0.6999374628067017,-0.024396097287535667,0.09482462704181671
1781548224635901,160355515,-0.005986720789223909,0.5696603655815125,0.821847677230835,-0.004307924769818783,0.03223247826099396,-0.1502757966518402,-9.86447525024414,0.7378314137458801,0.04835037514567375,0.12199969589710236
1781548224663915,160372182,-0.006001898553222418,0.5696634650230408,0.8218454122543335,-0.00431043142452836,0.025694916024804115,-0.148398295044899,-9.86404037475586,0.8048854470252991,0.11756868660449982,0.11913106590509415
1781548224665902,160388849,-0.005991785787045956,0.5696147680282593,0.8218792676925659,-0.004309566225856543,0.03603386506438255,-0.135996013879776,-9.845123291015625,0.6853125691413879,-0.009463891386985779,0.09152057021856308
1781548224694122,160405516,-0.00598536804318428,0.569587767124176,0.8218979835510254,-0.0043100835755467415,0.021163921803236008,-0.13428299129009247,-9.861218452453613,0.7083255648612976,0.004488625563681126,0.07423200458288193
1781548224724427,160422183,-0.005987031385302544,0.5695952773094177,0.8218928575515747,-0.004300598055124283,0.03235769271850586,-0.13547030091285706,-9.839022636413574,0.6838909983634949,0.08878001570701599,0.17757923901081085
1781548224727474,160438850,-0.005981098394840956,0.5695916414260864,0.8218955397605896,-0.004294458776712418,0.03781849890947342,-0.13737286627292633,-9.86766529083252,0.6731466054916382,0.032521720975637436,0.11809374392032623
1781548224754289,160455517,-0.005989770404994488,0.5695839524269104,0.8219009041786194,-0.004290678072720766,0.03247544914484024,-0.1489812135696411,-9.847586631774902,0.7437095046043396,0.10564597696065903,0.08680783957242966
1781548224755662,160472184,-0.0059888712130486965,0.569573163986206,0.8219082355499268,-0.004294408950954676,0.02520158514380455,-0.14647430181503296,-9.866312980651855,0.7488192915916443,0.02177719585597515,0.05079638585448265
1781548224784341,160488851,-0.0059949965216219425,0.5695828795433044,0.8219015002250671,-0.004283943213522434,0.03692791610956192,-0.14319491386413574,-9.851102828979492,0.696108341217041,0.11708205193281174,0.13932667672634125
1781548224785583,160505518,-0.005991673097014427,0.5695772171020508,0.8219054341316223,-0.00428795488551259,0.029503870755434036,-0.14428208768367767,-9.872699737548828,0.740392804145813,0.008151242509484291,0.15660245716571808
1781548224814300,160522185,-0.005991944577544928,0.5695681571960449,0.8219117522239685,-0.0042875842191278934,0.023281294852495193,-0.13564911484718323,-9.845542907714844,0.7294433116912842,0.04623732715845108,0.18624915182590485
1781548224815228,160538852,-0.005984246265143156,0.5695634484291077,0.8219150900840759,-0.004295019432902336,0.02627428062260151,-0.1521497219800949,-9.86724853515625,0.74294114112854,-0.03067120537161827,0.11103745549917221
1781548224843898,160555519,-0.005986650940030813,0.5695689916610718,0.821911096572876,-0.004288522992283106,0.024593576788902283,-0.1393004208803177,-9.854957580566406,0.7044708728790283,0.07943138480186462,0.04151178151369095
1781548224873737,160572186,-0.005978054832667112,0.5695497989654541,0.8219245076179504,-0.004298684652894735,0.03648096323013306,-0.14589853584766388,-9.869406700134277,0.7546462416648865,-0.04614127799868584,0.07069745659828186
1781548224875670,160588853,-0.0059806774370372295,0.5695546269416809,0.8219211101531982,-0.004294544458389282,0.04217063635587692,-0.13377876579761505,-9.85383129119873,0.7183144688606262,0.07232385128736496,0.10271331667900085
1781548224904887,160605520,-0.005982866045087576,0.5695692300796509,0.8219109773635864,-0.00429582130163908,0.039706628769636154,-0.14004069566726685,-9.866409301757812,0.7475386261940002,0.04796618968248367,0.09587474912405014
1781548224905415,160622187,-0.005987075623124838,0.5695791840553284,0.8219040632247925,-0.004291157238185406,0.027340104803442955,-0.1375516653060913,-9.875696182250977,0.7215674519538879,0.08319645375013351,0.1159166768193245
1781548224933850,160638854,-0.0059765917249023914,0.5695838332176208,0.8219008445739746,-0.004296484868973494,0.036427248269319534,-0.14403532445430756,-9.841897964477539,0.7199282050132751,-0.03758663684129715,0.19267792999744415
1781548224935347,160655521,-0.0059776995331048965,0.5695828795433044,0.8219015002250671,-0.004298981744796038,0.037045836448669434,-0.14239740371704102,-9.8624849319458,0.7497285008430481,0.03791319578886032,0.09034239500761032
1781548224963930,160672188,-0.005974922329187393,0.5695778131484985,0.8219050765037537,-0.004296295344829559,0.02974689193069935,-0.14372776448726654,-9.864803314208984,0.7050215005874634,0.03672220930457115,0.10710589587688446
1781548224966177,160688855,-0.0059760636650025845,0.5695656538009644,0.821913480758667,-0.004296998027712107,0.025498388335108757,-0.13637152314186096,-9.862940788269043,0.7398419976234436,0.04490546137094498,0.02989642135798931
1781548224994095,160705522,-0.005985678173601627,0.5695536732673645,0.821921706199646,-0.004297948908060789,0.031631551682949066,-0.14025527238845825,-9.860182762145996,0.773766040802002,0.09328785538673401,0.13598422706127167
1781548225023959,160722189,-0.005991566460579634,0.5695613026618958,0.8219163417816162,-0.0042982567101716995,0.03788634017109871,-0.13824187219142914,-9.855398178100586,0.7563109397888184,0.07319469004869461,0.10883474349975586
1781548225026028,160738856,-0.00599072128534317,0.5695607662200928,0.8219166994094849,-0.004297005478292704,0.032178714871406555,-0.13614621758460999,-9.865250587463379,0.7211703062057495,0.04123004153370857,0.07257998734712601
1781548225053907,160755523,-0.006001956295222044,0.5695595145225525,0.8219174742698669,-0.004300079308450222,0.03927748650312424,-0.14259769022464752,-9.86730670928955,0.7926297783851624,0.09315979480743408,0.11198511719703674
1781548225056059,160772190,-0.00599978631362319,0.5695506930351257,0.8219237923622131,-0.004307104274630547,0.04036840796470642,-0.14333082735538483,-9.854594230651855,0.7618945240974426,0.003156765131279826,0.16925513744354248
1781548225083838,160788857,-0.006002404261380434,0.5695297718048096,0.821938157081604,-0.004312782548367977,0.033462535589933395,-0.12859682738780975,-9.860982894897461,0.7735483050346375,0.034314610064029694,0.03618433699011803
1781548225085959,160805524,-0.005998039618134499,0.5695432424545288,0.8219287991523743,-0.004305459558963776,0.019830068573355675,-0.13539879024028778,-9.84740161895752,0.6734538674354553,0.04414989426732063,0.06213000416755676
1781548225113724,160822191,-0.006005870644003153,0.5695477724075317,0.8219256401062012,-0.0042953332886099815,0.03223235532641411,-0.12931565940380096,-9.854904174804688,0.7047269344329834,0.12557265162467957,0.13522863388061523
1781548225116954,160838858,-0.006004546768963337,0.5695496797561646,0.8219242691993713,-0.004303575027734041,0.03596591576933861,-0.1646450012922287,-9.868829727172852,0.7726902961730957,0.0020682255271822214,0.13677822053432465
1781548225144001,160855525,-0.006000122986733913,0.5695424675941467,0.821929395198822,-0.004307726863771677,0.03994981199502945,-0.14609163999557495,-9.831418991088867,0.7373703718185425,0.0004162063414696604,0.0861419066786766
1781548225174263,160872192,-0.006003269460052252,0.5695456862449646,0.8219271302223206,-0.0043108658865094185,0.03130611777305603,-0.14030534029006958,-9.844937324523926,0.7615103125572205,0.0469672866165638,0.11783763021230698
1781548225175598,160888859,-0.0060120015405118465,0.5695387125015259,0.8219318985939026,-0.004307052586227655,0.0395921915769577,-0.13457268476486206,-9.85500431060791,0.7439656257629395,0.10569720715284348,0.07027484476566315
1781548225203869,160905526,-0.006020800676196814,0.5695356130599976,0.8219339847564697,-0.004312618635594845,0.03674919903278351,-0.15211039781570435,-9.879348754882812,0.7972657680511475,0.0693143680691719,0.08464357256889343
1781548225205718,160922193,-0.006004409398883581,0.569554328918457,0.8219209909439087,-0.004310818389058113,0.03677043691277504,-0.14289090037345886,-9.859856605529785,0.6573306918144226,-0.04470696672797203,0.1398773491382599
1781548225233804,160938860,-0.005997792351990938,0.5695457458496094,0.821927011013031,-0.004308277741074562,0.047974709421396255,-0.13302059471607208,-9.860257148742676,0.690755307674408,0.01470809057354927,0.11770956218242645
1781548225235712,160955527,-0.00598495826125145,0.569645881652832,0.8218576312065125,-0.004312142729759216,0.024690134450793266,-0.15484263002872467,-9.857865333557129,0.793884813785553,0.057289205491542816,0.15246599912643433
1781548225263868,160972194,-0.005984402261674404,0.5696399211883545,0.8218618035316467,-0.004310972988605499,0.037457194179296494,-0.14156416058540344,-9.861806869506836,0.7222204208374023,0.04407304525375366,0.15802393853664398
1781548225265778,160988861,-0.005984121933579445,0.5696286559104919,0.8218696713447571,-0.004313885699957609,0.030165309086441994,-0.1450938880443573,-9.867460250854492,0.7462964057922363,0.029806775972247124,0.1461012363433838
1781548225294156,161005528,-0.005992659833282232,0.5696229934692383,0.8218736052513123,-0.004314109217375517,0.037861306220293045,-0.13303491473197937,-9.867059707641602,0.7659670114517212,0.08926666527986526,0.10373783111572266
1781548225323904,161022195,-0.005987146403640509,0.5696283578872681,0.8218699097633362,-0.004316423088312149,0.022190479561686516,-0.14791551232337952,-9.852373123168945,0.7231040596961975,0.0011589745990931988,0.11379081755876541
1781548225326000,161038862,-0.0059938207268714905,0.5696196556091309,0.821875810623169,-0.004306350834667683,0.021875660866498947,-0.13901075720787048,-9.864134788513184,0.7005777359008789,0.11883651465177536,0.07680607587099075
1781548225354088,161055529,-0.005993774626404047,0.5696126818656921,0.8218806385993958,-0.0043100048787891865,0.020087556913495064,-0.14205053448677063,-9.883800506591797,0.7517519593238831,0.027360767126083374,0.10116375237703323
1781548225355750,161072196,-0.0059864637441933155,0.5696264505386353,0.8218711614608765,-0.004316849634051323,0.03899854049086571,-0.14822305738925934,-9.854203224182129,0.7414427399635315,-0.02620178833603859,0.18817009031772614
1781548225383672,161088863,-0.005986916366964579,0.5696278214454651,0.8218701481819153,-0.004314514808356762,0.04099037125706673,-0.1390572488307953,-9.861586570739746,0.7199793457984924,0.05335765704512596,0.11636489629745483
1781548225385818,161105530,-0.005985409952700138,0.569633960723877,0.8218659162521362,-0.004310001619160175,0.035962481051683426,-0.14373134076595306,-9.874377250671387,0.7000270485877991,0.05097567290067673,0.14862410724163055
1781548225414124,161122197,-0.005991409067064524,0.5696393847465515,0.8218621611595154,-0.004302059765905142,0.04599717631936073,-0.14622396230697632,-9.865418434143066,0.7102593183517456,0.10631190985441208,0.11039713770151138
1781548225415879,161138864,-0.005985387600958347,0.5696399211883545,0.8218618631362915,-0.004300414118915796,0.03358784690499306,-0.15376977622509003,-9.86341667175293,0.6985799670219421,0.014016549102962017,0.11384204775094986
1781548225444005,161155531,-0.005995080806314945,0.5696423649787903,0.8218600153923035,-0.004303779453039169,0.019579734653234482,-0.14736835658550262,-9.86396312713623,0.7885061502456665,0.08309399336576462,0.11558370292186737
1781548225473811,161172198,-0.005992293823510408,0.5696467757225037,0.8218570947647095,-0.004308253526687622,0.036766987293958664,-0.14147832989692688,-9.849897384643555,0.7455663681030273,0.009047684259712696,0.18072961270809174
1781548225475568,161188865,-0.005983984563499689,0.5696384310722351,0.8218629956245422,-0.004308524075895548,0.03963494673371315,-0.1462954729795456,-9.836067199707031,0.6997837424278259,-0.005160958971828222,0.1672189086675644
1781548225504188,161205532,-0.005990841891616583,0.5696206092834473,0.821875274181366,-0.004307151306420565,0.0355832614004612,-0.14616674184799194,-9.870038986206055,0.7500742673873901,0.08699993789196014,0.12900476157665253
1781548225506881,161222199,-0.005995733197778463,0.5695871114730835,0.8218985199928284,-0.004306005779653788,0.0246722549200058,-0.14735405147075653,-9.854217529296875,0.7435686588287354,0.07479548454284668,0.050053615123033524
1781548225533978,161238866,-0.005993713159114122,0.5695770978927612,0.8219054341316223,-0.0043131145648658276,0.02735440991818905,-0.13653244078159332,-9.853738784790039,0.7634825110435486,0.0026701234746724367,0.09385132044553757
1781548225536445,161255533,-0.005994969513267279,0.5695922374725342,0.8218947052955627,-0.00432236772030592,0.03915231674909592,-0.15929143130779266,-9.864556312561035,0.7894793748855591,0.010686898604035378,0.047748468816280365
1781548225564515,161272200,-0.006002544425427914,0.5695913434028625,0.8218952417373657,-0.004334474913775921,0.02927268110215664,-0.13493606448173523,-9.881467819213867,0.8294736742973328,0.03737533092498779,0.13635560870170593
1781548225567003,161288867,-0.006003630347549915,0.5696848034858704,0.8218303918838501,-0.004331700038164854,0.023474348708987236,-0.15031155943870544,-9.856646537780762,0.7225790619850159,0.05333204194903374,0.12481709569692612
1781548225594845,161305534,-0.006001067813485861,0.5697036981582642,0.8218174576759338,-0.004328139126300812,0.028051769360899925,-0.13852080702781677,-9.855669975280762,0.7015382647514343,0.04047446325421333,0.14820146560668945
1781548225623896,161322201,-0.006010581739246845,0.5696925520896912,0.8218252062797546,-0.004315607249736786,0.03871244564652443,-0.1273701936006546,-9.86834716796875,0.6977219581604004,0.14491024613380432,0.09985751658678055
1781548225625759,161338868,-0.006003696471452713,0.5696843862533569,0.8218308091163635,-0.00432597566395998,0.03475358337163925,-0.14036613702774048,-9.844118118286133,0.7625477313995361,-0.036664579063653946,0.1704973429441452
1781548225654247,161355535,-0.006009070202708244,0.5696708559989929,0.8218401670455933,-0.004324121866375208,0.02524087019264698,-0.14194324612617493,-9.87363338470459,0.7421984672546387,0.07884229719638824,0.029268914833664894
1781548225655711,161372202,-0.006008156109601259,0.5696715116500854,0.8218396902084351,-0.004326232243329287,0.03821546584367752,-0.14534065127372742,-9.849966049194336,0.7397779822349548,0.02814195305109024,0.11286875605583191
1781548225684080,161388869,-0.006011440884321928,0.5696946978569031,0.8218236565589905,-0.0043262033723294735,0.025140641257166862,-0.14573045074939728,-9.860846519470215,0.7449517250061035,0.05864667147397995,0.09454287588596344
1781548225686633,161405536,-0.006003884132951498,0.5696958899497986,0.8218228816986084,-0.004326777998358011,0.012234375812113285,-0.14979660511016846,-9.855459213256836,0.7048166394233704,-0.002548463409766555,0.17615772783756256
1781548225713670,161422203,-0.006007486023008823,0.5696932673454285,0.8218247294425964,-0.004317978397011757,0.0239175483584404,-0.14067010581493378,-9.867265701293945,0.6957112550735474,0.09683520346879959,0.13038784265518188
1781548225715554,161438870,-0.006010787095874548,0.569707989692688,0.8218144774436951,-0.004317884333431721,0.03279024362564087,-0.15009699761867523,-9.848012924194336,0.7442346215248108,0.060080986469984055,0.13471639156341553
1781548225744137,161455537,-0.00601496547460556,0.5696957111358643,0.821823000907898,-0.004320673178881407,0.037088844925165176,-0.13240192830562592,-9.866816520690918,0.7637258172035217,0.05403639376163483,0.04161422699689865
1781548225774453,161472204,-0.006013496778905392,0.5696659684181213,0.8218436241149902,-0.004319147672504187,0.024128669872879982,-0.13653244078159332,-9.863104820251465,0.7164832353591919,0.04057691618800163,0.08167248964309692
1781548225777189,161488871,-0.006024491507560015,0.5696704387664795,0.8218404054641724,-0.0043210918083786964,0.023084215819835663,-0.13564912974834442,-9.856240272521973,0.785278856754303,0.09687361866235733,0.18692785501480103
1781548225805987,161505538,-0.006029940210282803,0.5696488618850708,0.8218553066253662,-0.004325565882027149,0.03182466700673103,-0.14089183509349823,-9.874727249145508,0.7775439620018005,0.0561494454741478,0.11491778492927551
1781548225806522,161522205,-0.006023644004017115,0.5696389675140381,0.8218622207641602,-0.004321384243667126,0.028166208416223526,-0.1459307074546814,-9.87447738647461,0.6834684610366821,0.021790003404021263,0.02908962219953537
1781548225834109,161538872,-0.006020627915859222,0.5696374177932739,0.8218632936477661,-0.004324644338339567,0.0319177508354187,-0.13373227417469025,-9.854325294494629,0.7382668256759644,0.011660180985927582,0.09798778593540192
1781548225837154,161555539,-0.006028344389051199,0.5696335434913635,0.8218659162521362,-0.00432353001087904,0.03634857013821602,-0.1408703774213791,-9.850377082824707,0.7549662590026855,0.09056009352207184,0.16958807408809662
1781548225864217,161572206,-0.0060290019027888775,0.5696484446525574,0.8218556046485901,-0.004329215735197067,0.01934012956917286,-0.15268616378307343,-9.859578132629395,0.766581654548645,0.02257119119167328,0.14351433515548706
1781548225866032,161588873,-0.006024414673447609,0.5696406960487366,0.8218609690666199,-0.004331621807068586,0.050964392721652985,-0.13720832765102386,-9.855661392211914,0.7268051505088806,0.006998669356107712,0.13648368418216705
1781548225895247,161605540,-0.006026059854775667,0.5696314573287964,0.8218673467636108,-0.004339486826211214,0.03631984815001488,-0.13501611351966858,-9.866089820861816,0.7823206782341003,0.020458143204450607,0.10386589914560318
1781548225923808,161622207,-0.006026411894708872,0.5696253776550293,0.8218715786933899,-0.004342271946370602,0.03978530690073967,-0.14994679391384125,-9.858116149902344,0.7486655712127686,0.032572947442531586,0.08124988526105881
1781548225925952,161638874,-0.006022745277732611,0.5696277618408203,0.8218699097633362,-0.004341922700405121,0.028080254793167114,-0.1448184996843338,-9.852070808410645,0.7153178453445435,0.022263837978243828,0.12728871405124664
1781548225953769,161655541,-0.006025837734341621,0.5696269273757935,0.8218705654144287,-0.004331829492002726,0.030022259801626205,-0.1433701515197754,-9.84929370880127,0.686798095703125,0.09809023141860962,0.07638346403837204
1781548225955204,161672208,-0.006025437731295824,0.5696130990982056,0.8218799829483032,-0.004339126870036125,0.02637452818453312,-0.1393934041261673,-9.857375144958496,0.7704108953475952,0.012595044448971748,0.1901678889989853
1781548225983764,161688875,-0.006024546455591917,0.5696268677711487,0.8218704462051392,-0.004329759161919355,0.03466775268316269,-0.13621774315834045,-9.872309684753418,0.6754004955291748,0.07261840999126434,0.12789063155651093
1781548225985317,161705542,-0.006030014716088772,0.5696312785148621,0.8218674063682556,-0.00432645482942462,0.03457850590348244,-0.15135939419269562,-9.858616828918457,0.734207272529602,0.0857321098446846,0.15680734813213348
1781548226013802,161722209,-0.0060271937400102615,0.56963050365448,0.8218680620193481,-0.004324724897742271,0.030204646289348602,-0.13729417324066162,-9.87115478515625,0.7104001641273499,0.03323888033628464,0.16934476792812347
1781548226015293,161738876,-0.006017986685037613,0.5696454644203186,0.8218578100204468,-0.004317758604884148,0.031138190999627113,-0.1398654729127884,-9.82325553894043,0.6561397314071655,0.016731495037674904,0.17266161739826202
1781548226044008,161755543,-0.006013125646859407,0.5696377158164978,0.8218632936477661,-0.004321378655731678,0.029457353055477142,-0.14493295550346375,-9.857437133789062,0.7327216267585754,0.0006083015468902886,0.13282105326652527
1781548226073803,161772210,-0.006017625331878662,0.5696316957473755,0.8218672871589661,-0.004321107640862465,0.017913132905960083,-0.12750966846942902,-9.846148490905762,0.747615396976471,0.06804652512073517,0.08646205812692642
1781548226075765,161788877,-0.006003394722938538,0.5696278810501099,0.8218699097633362,-0.0043249307200312614,0.033509060740470886,-0.14100269973278046,-9.848793029785156,0.6974401473999023,-0.05368421599268913,0.10852740705013275
1781548226103798,161805544,-0.0060058641247451305,0.5696295499801636,0.8218689560890198,-0.004325187299400568,0.033537525683641434,-0.14637058973312378,-9.87261962890625,0.7426081895828247,0.054779164493083954,0.14135007560253143
1781548226106240,161822211,-0.0060216994024813175,0.5696312189102173,0.8218677043914795,-0.004328050184994936,0.036262743175029755,-0.14318418502807617,-9.867149353027344,0.8096621632575989,0.12020678073167801,0.14861127734184265
1781548226133922,161838878,-0.006026583723723888,0.5696303248405457,0.8218681216239929,-0.004320816602557898,0.04580048844218254,-0.1452619582414627,-9.850509643554688,0.7095422148704529,0.09829514473676682,0.1691654771566391
1781548226135670,161855545,-0.0060281758196651936,0.5696302652359009,0.8218681216239929,-0.004320797044783831,0.0318497009575367,-0.14592713117599487,-9.866280555725098,0.7375497221946716,0.05107812583446503,0.14969982206821442
1781548226163795,161872212,-0.006017462350428104,0.5696035027503967,0.8218867778778076,-0.0043328930623829365,0.03610196337103844,-0.15139161050319672,-9.870694160461426,0.7571178078651428,-0.06447996944189072,0.14229774475097656
1781548226165875,161888879,-0.006019354797899723,0.5696112513542175,0.8218814134597778,-0.004330077208578587,0.026485390961170197,-0.14706437289714813,-9.852805137634277,0.7232193350791931,0.06312889605760574,0.13656052947044373
1781548226194111,161905546,-0.006008851807564497,0.5696117281913757,0.821881115436554,-0.00433367257937789,0.02407502755522728,-0.13647164404392242,-9.859475135803223,0.7106947302818298,-0.03177255392074585,0.12645630538463593
1781548226223773,161922213,-0.0060088238678872585,0.5696086883544922,0.8218832612037659,-0.004331295844167471,0.03574061393737793,-0.14564819633960724,-9.852161407470703,0.7179943323135376,0.051014095544815063,0.12676364183425903
1781548226225989,161938880,-0.006002525798976421,0.5696095824241638,0.8218827247619629,-0.004339226055890322,0.025122856721282005,-0.13996201753616333,-9.852754592895508,0.7513933777809143,-0.02425522729754448,0.18108820915222168
1781548226254533,161955547,-0.006004565395414829,0.5696269273757935,0.8218705058097839,-0.004335317295044661,0.024557815864682198,-0.15179570019245148,-9.851070404052734,0.7178406715393066,0.06802091747522354,0.1633642017841339
1781548226255810,161972214,-0.006013406906276941,0.5696306228637695,0.821867823600769,-0.004340469837188721,0.033734507858753204,-0.1366826295852661,-9.8748140335083,0.7953447699546814,0.07132496684789658,0.13136114180088043
1781548226284095,161988881,-0.006014789920300245,0.5696703791618347,0.8218403458595276,-0.004334170371294022,0.044670406728982925,-0.14134959876537323,-9.873085975646973,0.702409029006958,0.0719652771949768,0.13516461849212646
1781548226285864,162005548,-0.006020703352987766,0.5696625709533691,0.8218457102775574,-0.004332432523369789,0.03929523006081581,-0.14502950012683868,-9.8663330078125,0.7446443438529968,0.08244086802005768,0.13180935382843018
1781548226314083,162022215,-0.0060232761316001415,0.5696635842323303,0.8218451738357544,-0.004333275370299816,0.03558318689465523,-0.15339423716068268,-9.842533111572266,0.7467702627182007,0.05208982527256012,0.07286173105239868
1781548226316208,162038882,-0.006014792248606682,0.5696620345115662,0.8218463063240051,-0.004333157557994127,0.04297897592186928,-0.14778320491313934,-9.875,0.6975810527801514,-0.0058140829205513,0.12048853933811188
1781548226343912,162055549,-0.006015466526150703,0.5696479678153992,0.8218560218811035,-0.00434635765850544,0.030319085344672203,-0.14836253225803375,-9.855870246887207,0.8088937401771545,-0.006723332684487104,0.0334053635597229
1781548226373822,162072216,-0.006015485618263483,0.5696465969085693,0.8218568563461304,-0.004352263640612364,0.043247073888778687,-0.15343359112739563,-9.864678382873535,0.7648016214370728,0.01921592652797699,0.16298000514507294
1781548226376924,162088883,-0.006019566208124161,0.569646418094635,0.8218567967414856,-0.004350690636783838,0.03746077045798302,-0.13068176805973053,-9.843396186828613,0.738881528377533,0.07033886760473251,0.08954839408397675
1781548226403900,162105550,-0.00601666234433651,0.5696415901184082,0.8218601942062378,-0.00435155862942338,0.030833899974822998,-0.14400669932365417,-9.873739242553711,0.7248714566230774,0.02258399873971939,0.1598808765411377
1781548226405596,162122217,-0.006017611362040043,0.5696545243263245,0.821851372718811,-0.004344960208982229,0.042113613337278366,-0.13173674046993256,-9.871638298034668,0.6979139447212219,0.0731818825006485,0.20360173285007477
1781548226433817,162138884,-0.006016349885612726,0.5696609020233154,0.8218470215797424,-0.004347010515630245,0.02582399919629097,-0.14489717781543732,-9.881983757019043,0.7379850745201111,0.027155866846442223,0.20340965688228607
1781548226435617,162155551,-0.0060228328220546246,0.5696771740913391,0.8218356370925903,-0.0043504745699465275,0.008200381882488728,-0.1391323357820511,-9.857154846191406,0.7770187854766846,0.06375640630722046,0.12926088273525238
1781548226463672,162172218,-0.006027111783623695,0.5696887373924255,0.8218275904655457,-0.004354467149823904,0.024021385237574577,-0.1373049020767212,-9.865486145019531,0.7713456153869629,0.04909313842654228,0.09882018715143204
1781548226465146,162188885,-0.00602740328758955,0.5696823000907898,0.8218320608139038,-0.004353972617536783,0.04512086510658264,-0.13980109989643097,-9.882246971130371,0.7296737432479858,0.04578910395503044,0.14241302013397217
1781548226494673,162205552,-0.0060216388665139675,0.5696824193000793,0.8218318819999695,-0.0043505229987204075,0.025916773825883865,-0.13942201435565948,-9.868318557739258,0.6895514726638794,0.022558383643627167,0.12726309895515442
1781548226523595,162222219,-0.006016965489834547,0.569688081741333,0.8218279480934143,-0.004351230803877115,0.03923814743757248,-0.14882387220859528,-9.862314224243164,0.7169443368911743,0.013325006701052189,0.21298879384994507
1781548226525331,162238886,-0.006027175113558769,0.5696948170661926,0.8218233585357666,-0.004358771722763777,0.023520715534687042,-0.1472574919462204,-9.870589256286621,0.8141828179359436,0.06982661783695221,0.15838252007961273
1781548226553600,162255553,-0.0060182190500199795,0.5696989297866821,0.8218204975128174,-0.004364517517387867,0.026614196598529816,-0.14729683101177216,-9.85445785522461,0.7295072674751282,-0.03268180042505264,0.060426756739616394
1781548226555575,162272220,-0.006022944115102291,0.5697001218795776,0.8218196630477905,-0.004355642944574356,0.025237295776605606,-0.14242960512638092,-9.886686325073242,0.6999630928039551,0.10321277379989624,0.1416318118572235
1781548226583871,162288887,-0.006016700062900782,0.5696823596954346,0.821832001209259,-0.004361668135970831,0.031363338232040405,-0.1430375576019287,-9.870224952697754,0.7407896518707275,-0.016315286979079247,0.12077026069164276
1781548226586752,162305554,-0.006013988982886076,0.5697267651557922,0.8218011856079102,-0.00435921223834157,0.01908264122903347,-0.1462525725364685,-9.855891227722168,0.7083127498626709,0.03335413709282875,0.13211670517921448
1781548226614880,162322221,-0.006007480900734663,0.5697389245033264,0.8217927813529968,-0.004363063257187605,0.024221710860729218,-0.14585919678211212,-9.870772361755371,0.7285851240158081,-0.011884291656315327,0.05855703353881836
1781548226616036,162338888,-0.006003966089338064,0.5697388052940369,0.8217929005622864,-0.004371156450361013,0.028405815362930298,-0.13670052587985992,-9.838618278503418,0.7637642025947571,-0.010270691476762295,0.10093323886394501
1781548226644120,162355555,-0.005996000021696091,0.5697429180145264,0.8217900395393372,-0.004368626978248358,0.03161367401480675,-0.14940321445465088,-9.866029739379883,0.6860681772232056,0.006793768610805273,0.16280072927474976
1781548226673793,162372222,-0.005996824707835913,0.5698115825653076,0.8217424750328064,-0.004373678471893072,0.03152801841497421,-0.14263346791267395,-9.848124504089355,0.7649937272071838,0.023006606847047806,0.1677311658859253
1781548226676755,162388889,-0.006001586094498634,0.5698041319847107,0.8217476010322571,-0.0043778917752206326,0.03830833360552788,-0.1494675874710083,-9.84256649017334,0.7739324569702148,0.05223069339990616,0.11160094290971756
1781548226703829,162405556,-0.006002302747219801,0.56980299949646,0.8217483162879944,-0.004387188702821732,0.0380471907556057,-0.13516274094581604,-9.868664741516113,0.7872638702392578,0.008535431697964668,0.07115847617387772
1781548226705983,162422223,-0.006000343710184097,0.5698060393333435,0.8217461705207825,-0.004390216898173094,0.024171585217118263,-0.1466924399137497,-9.863658905029297,0.7415837049484253,0.017423037439584732,0.04973345622420311
1781548226734251,162438890,-0.006007677409797907,0.569807767868042,0.8217449188232422,-0.0043917628936469555,0.03749653324484825,-0.15292219817638397,-9.8717622756958,0.7695655226707458,0.07607611268758774,0.06992907077074051
1781548226736868,162455557,-0.005985819268971682,0.5698013305664062,0.8217495679855347,-0.004393779672682285,0.024479039013385773,-0.14726459980010986,-9.852005958557129,0.6573306918144226,-0.08960602432489395,0.11330416798591614
1781548226764221,162472224,-0.005991593934595585,0.5697888731956482,0.8217582106590271,-0.004386880900710821,0.028405815362930298,-0.14110998809337616,-9.85832691192627,0.7147544622421265,0.10261088609695435,0.17104801535606384
1781548226793842,162488891,-0.005983091425150633,0.5697927474975586,0.8217555284500122,-0.0043913833796978,0.022376328706741333,-0.1567523181438446,-9.8712158203125,0.7237956523895264,-0.024165581911802292,0.13668856024742126
1781548226795273,162505558,-0.005988947581499815,0.5697852969169617,0.8217607140541077,-0.004384923726320267,0.032786667346954346,-0.14941036701202393,-9.866809844970703,0.7181223630905151,0.10007521510124207,0.10099726915359497
1781548226823817,162522225,-0.005982762668281794,0.5697832107543945,0.8217621445655823,-0.00438453396782279,0.04038263484835625,-0.15147027373313904,-9.86246109008789,0.7052776217460632,0.007920726202428341,0.10248280316591263
1781548226826496,162538892,-0.005981458816677332,0.569783091545105,0.821762204170227,-0.004381867591291666,0.032829444855451584,-0.1429123878479004,-9.877354621887207,0.7113991379737854,0.04487985000014305,0.14250265061855316
1781548226854004,162555559,-0.005982092581689358,0.5697683691978455,0.8217724561691284,-0.004383813589811325,0.03662751615047455,-0.13812385499477386,-9.863716125488281,0.7446570992469788,0.038604736328125,0.14086343348026276
1781548226856025,162572226,-0.0059672468341887,0.5697647333145142,0.8217751383781433,-0.004380466416478157,0.038140252232551575,-0.13662542402744293,-9.873668670654297,0.6546285152435303,-0.02921128273010254,0.10969278961420059
1781548226884615,162588893,-0.005968121346086264,0.5697625279426575,0.8217766880989075,-0.004363563843071461,0.03694937378168106,-0.14588423073291779,-9.871855735778809,0.639465868473053,0.11290717869997025,0.12967070937156677
1781548226886227,162605560,-0.0059636314399540424,0.5697648525238037,0.8217752575874329,-0.0043534934520721436,0.03254348784685135,-0.14160707592964172,-9.860286712646484,0.6578046083450317,0.05403639376163483,0.021533876657485962
1781548226913967,162622227,-0.005968562792986631,0.5697700381278992,0.8217716813087463,-0.004354836884886026,0.02914268709719181,-0.14709298312664032,-9.866621017456055,0.7584752440452576,0.06437111645936966,0.1650930494070053
1781548226916051,162638894,-0.005966953467577696,0.5697604417800903,0.8217781782150269,-0.0043588606640696526,0.030576571822166443,-0.1387389600276947,-9.862710952758789,0.7481789588928223,0.016385724768042564,0.06287278234958649
1781548226944586,162655561,-0.005965386051684618,0.5697599053382874,0.8217785954475403,-0.004357315134257078,0.029482165351510048,-0.15148454904556274,-9.85953426361084,0.7169954180717468,0.03824616223573685,0.08965084701776505
1781548226973903,162672228,-0.00595432985574007,0.5697576403617859,0.8217803239822388,-0.0043520028702914715,0.029650447890162468,-0.13913235068321228,-9.873733520507812,0.6582655906677246,0.0,0.1254061758518219
1781548226976180,162688895,-0.0059563955292105675,0.5697537064552307,0.8217828869819641,-0.004352536518126726,0.024407614022493362,-0.14191105961799622,-9.836544036865234,0.7427874803543091,0.050911638885736465,0.09637417644262314
1781548227004234,162705562,-0.0059493049047887325,0.569749653339386,0.8217857480049133,-0.004350959323346615,0.04938026890158653,-0.15305452048778534,-9.86330509185791,0.6950709819793701,0.0072547965683043,0.08369588851928711
1781548227006242,162722229,-0.00593524007126689,0.5697466731071472,0.82178795337677,-0.004350967705249786,0.03200347721576691,-0.16066469252109528,-9.874344825744629,0.6766811609268188,-0.03808608278632164,0.10681135207414627
1781548227033893,162738896,-0.005938564892858267,0.569736897945404,0.8217948079109192,-0.004340182524174452,0.031971294432878494,-0.1414962112903595,-9.849618911743164,0.6834172010421753,0.10323837399482727,0.1341913342475891
1781548227036295,162755563,-0.005942977964878082,0.5697452425956726,0.821789026260376,-0.004341940861195326,0.043121907860040665,-0.15212827920913696,-9.861549377441406,0.7591924667358398,0.058838777244091034,0.10846338421106339
1781548227063885,162772230,-0.0059439982287585735,0.5697473287582397,0.8217875361442566,-0.004345085006207228,0.02133910357952118,-0.1483696699142456,-9.868063926696777,0.7535703778266907,0.03473722189664841,0.12018118053674698
1781548227065915,162788897,-0.005933794192969799,0.5697511434555054,0.821785032749176,-0.004359872546046972,0.03992835432291031,-0.15777869522571564,-9.852962493896484,0.7756357789039612,-0.07494276016950607,0.07927770912647247
1781548227094593,162805564,-0.0059382375329732895,0.569753885269165,0.8217829465866089,-0.0043615782633423805,0.03227527067065239,-0.14375637471675873,-9.857961654663086,0.7587442994117737,0.059901706874370575,0.13668857514858246
1781548227123885,162822231,-0.005928000435233116,0.5697566866874695,0.8217810988426208,-0.004372593015432358,0.027858758345246315,-0.13190843164920807,-9.862532615661621,0.7540571093559265,-0.05998493731021881,0.10118937492370605
1781548227126731,162838898,-0.005933919921517372,0.5697513222694397,0.8217848539352417,-0.004366734996438026,0.041748642921447754,-0.1471037119626999,-9.864181518554688,0.721388041973114,0.0987817645072937,0.1676415055990219
1781548227154280,162855565,-0.005934169981628656,0.5697485208511353,0.821786642074585,-0.004360373597592115,0.03535426780581474,-0.1428515911102295,-9.849706649780273,0.6966461539268494,0.0679825097322464,0.12491953372955322
1781548227156175,162872232,-0.00593743147328496,0.5697513818740845,0.8217847347259521,-0.004361627157777548,0.02769414894282818,-0.13915738463401794,-9.869234085083008,0.7515726089477539,0.054920028895139694,0.13312840461730957
1781548227184552,162888899,-0.005937561858445406,0.5697253346443176,0.8218028545379639,-0.0043503656052052975,0.03257209435105324,-0.14127449691295624,-9.884354591369629,0.6677166223526001,0.08822934329509735,0.15022486448287964
1781548227185978,162905566,-0.0059553575702011585,0.5697149038314819,0.8218098878860474,-0.004350089468061924,0.041562680155038834,-0.14854492247104645,-9.861123085021973,0.7995452880859375,0.14365524053573608,0.12320350110530853
1781548227213690,162922233,-0.0059560504741966724,0.5697303414344788,0.8217991590499878,-0.004352170508354902,0.03830846771597862,-0.13359996676445007,-9.846744537353516,0.7465782165527344,0.036389242857694626,0.13054153323173523
1781548227215757,162938900,-0.0059485360980033875,0.5697352886199951,0.8217957615852356,-0.004359972197562456,0.04148775339126587,-0.14113503694534302,-9.877324104309082,0.7461940050125122,-0.0313115268945694,0.16657859086990356
1781548227243889,162955567,-0.0059255086816847324,0.5698165893554688,0.8217395544052124,-0.004374057520180941,0.032146528363227844,-0.15513229370117188,-9.855998992919922,0.7037792801856995,-0.034807655960321426,0.09080340713262558
1781548227273900,162972234,-0.005925321485847235,0.5698399543762207,0.8217233419418335,-0.004370588343590498,0.023885488510131836,-0.13856729865074158,-9.867403030395508,0.71165531873703,0.053332049399614334,0.16734696924686432
1781548227275972,162988901,-0.005915204528719187,0.5698425769805908,0.8217214941978455,-0.004373299889266491,0.025981461629271507,-0.14045555889606476,-9.870218276977539,0.7072370648384094,-0.025881633162498474,0.1619170904159546
1781548227303898,163005568,-0.00591181730851531,0.5698449611663818,0.8217199444770813,-0.004368751775473356,0.03731057047843933,-0.14520473778247833,-9.860465049743652,0.6928683519363403,0.03961644321680069,0.08902333676815033
1781548227306556,163022235,-0.0059201582334935665,0.5698552131652832,0.821712851524353,-0.004353584721684456,0.0418165922164917,-0.149678573012352,-9.849461555480957,0.679063081741333,0.14726661145687103,0.1074516698718071
1781548227333958,163038902,-0.00592977087944746,0.5698500275611877,0.8217163681983948,-0.004355275072157383,0.030226007103919983,-0.13854941725730896,-9.859867095947266,0.7789525389671326,0.08906175196170807,0.08826775848865509
1781548227336374,163055569,-0.005929131526499987,0.5698437094688416,0.8217207789421082,-0.004351907875388861,0.033154867589473724,-0.14323067665100098,-9.86508846282959,0.7103105187416077,0.050821997225284576,0.07661397755146027
1781548227364515,163072236,-0.00593087263405323,0.5698428750038147,0.8217212557792664,-0.004345713183283806,0.0338844358921051,-0.13279172778129578,-9.869261741638184,0.7035488486289978,0.07578157633543015,0.13014453649520874
1781548227366000,163088903,-0.005930921994149685,0.5698444247245789,0.82172030210495,-0.004350514616817236,0.027672691270709038,-0.13763391971588135,-9.853777885437012,0.7590771913528442,0.022750481963157654,0.11175461113452911
1781548227394146,163105570,-0.005925465375185013,0.5698491930961609,0.8217170238494873,-0.004355085548013449,0.01710142381489277,-0.14495083689689636,-9.879047393798828,0.7364227175712585,-0.00796554982662201,0.09039361774921417
1781548227423894,163122237,-0.005930510349571705,0.5698628425598145,0.8217074871063232,-0.004360092803835869,0.030000939965248108,-0.12893299758434296,-9.866437911987305,0.7801307439804077,0.04966942220926285,0.12885107100009918
1781548227426005,163138904,-0.005930906627327204,0.5698856115341187,0.8216917514801025,-0.004350871313363314,0.026202967390418053,-0.145229771733284,-9.857980728149414,0.6819189190864563,0.07824039459228516,0.10217545926570892
1781548227454003,163155571,-0.005932299420237541,0.5699080228805542,0.8216761350631714,-0.004357249476015568,0.031055783852934837,-0.15337638556957245,-9.870574951171875,0.7733945846557617,0.024210400879383087,0.20306386053562164
1781548227455608,163172238,-0.005935001187026501,0.569920539855957,0.821667492389679,-0.004360574297606945,0.016736650839447975,-0.1421363651752472,-9.869895935058594,0.7617024183273315,0.04236980527639389,0.07917525619268417
1781548227484892,163188905,-0.005930114071816206,0.5699073672294617,0.8216765522956848,-0.0043614646419882774,0.03445317968726158,-0.13719403743743896,-9.853641510009766,0.7176742553710938,0.010059388354420662,0.0428948700428009
1781548227485964,163205572,-0.005934219807386398,0.5699043273925781,0.8216786980628967,-0.004361470229923725,0.0316028855741024,-0.15542194247245789,-9.859699249267578,0.7481789588928223,0.06393569707870483,0.05718675255775452
1781548227513824,163222239,-0.005928540602326393,0.5698963403701782,0.8216842412948608,-0.004366028588265181,0.04257832467556,-0.13892492651939392,-9.871541023254395,0.7352189421653748,-0.008567447774112225,0.0809425339102745
1781548227515748,163238906,-0.005929311737418175,0.5698767900466919,0.8216977715492249,-0.004367999732494354,0.027862124145030975,-0.15229277312755585,-9.859184265136719,0.7454383969306946,0.03897612914443016,0.1032768115401268
1781548227544027,163255573,-0.005924344528466463,0.569871187210083,0.8217016458511353,-0.004370606504380703,0.031216610223054886,-0.13789138197898865,-9.861937522888184,0.7269331812858582,0.0032848285045474768,0.10221386700868607
1781548227574648,163272240,-0.0059304204769432545,0.5698745250701904,0.8216992616653442,-0.004370502196252346,0.04386218264698982,-0.1430518627166748,-9.856728553771973,0.754787027835846,0.07661398500204086,0.16432467103004456
1781548227576857,163288907,-0.0059328097850084305,0.5698572397232056,0.8217112421989441,-0.004373348318040371,0.030168820172548294,-0.1476830393075943,-9.839707374572754,0.7571178078651428,0.04398341104388237,0.06205316260457039
1781548227604341,163305574,-0.005923732183873653,0.5698599219322205,0.8217096328735352,-0.004371041897684336,0.04286814108490944,-0.13748371601104736,-9.856024742126465,0.6830074191093445,-0.0004738348943646997,0.15491199493408203
1781548227606346,163322241,-0.00592668354511261,0.5698516964912415,0.8217151761054993,-0.004375055432319641,0.031177375465631485,-0.16320736706256866,-9.877809524536133,0.7658644914627075,0.04257471114397049,0.10089482367038727
1781548227634141,163338908,-0.005934843793511391,0.5698367953300476,0.8217254877090454,-0.004374013748019934,0.0372140146791935,-0.13897857069969177,-9.854971885681152,0.7574635148048401,0.09242981672286987,0.11687713116407394
1781548227637071,163355575,-0.005930215120315552,0.5698387622833252,0.8217240571975708,-0.004373134579509497,0.028395086526870728,-0.14007288217544556,-9.86246109008789,0.7083640098571777,0.019343988969922066,0.17167551815509796
1781548227664972,163372242,-0.005917888134717941,0.5698269009590149,0.8217324614524841,-0.004375845193862915,0.03124532289803028,-0.14116720855236053,-9.857464790344238,0.6987593173980713,-0.03894411027431488,0.06335941702127457
1781548227666364,163388909,-0.005907581653445959,0.5698211789131165,0.8217364549636841,-0.004380648955702782,0.049319587647914886,-0.14697140455245972,-9.867121696472168,0.7183273434638977,-0.03543516993522644,0.1121387928724289
1781548227694518,163405576,-0.005900700576603413,0.5698226690292358,0.8217354416847229,-0.004390725400298834,0.03818681091070175,-0.13721193373203278,-9.854686737060547,0.7621378898620605,-0.037753116339445114,0.0669580027461052
1781548227723701,163422243,-0.005909851752221584,0.5698215365409851,0.8217361569404602,-0.004400820005685091,0.031949836760759354,-0.13510911166667938,-9.86245346069336,0.8246456980705261,0.05348571762442589,0.11087096482515335
1781548227725726,163438910,-0.00590453390032053,0.5698187947273254,0.8217380046844482,-0.004410522058606148,0.035962339490652084,-0.15839022397994995,-9.843635559082031,0.7658004760742188,-0.026829302310943604,0.09629734605550766
1781548227753735,163455577,-0.005906700622290373,0.5698223114013672,0.8217353820800781,-0.004418513271957636,0.0297076553106308,-0.14993607997894287,-9.865368843078613,0.7855863571166992,0.021802810952067375,0.0938897505402565
1781548227755598,163472244,-0.005898101255297661,0.5698278546333313,0.8217315077781677,-0.004422454163432121,0.023052329197525978,-0.13715113699436188,-9.851664543151855,0.7206324338912964,-0.02329474687576294,0.0975651666522026
1781548227783859,163488911,-0.005910161416977644,0.5698508024215698,0.8217155933380127,-0.004428451880812645,0.0321858674287796,-0.13981182873249054,-9.854225158691406,0.8132480978965759,0.08519425243139267,0.1593686193227768
1781548227785487,163505578,-0.00590658700093627,0.5698531270027161,0.821713924407959,-0.004443011712282896,0.027332952246069908,-0.1473933905363083,-9.838479042053223,0.8001726865768433,-0.03622915968298912,0.10533862560987473
1781548227813859,163522245,-0.0059043592773377895,0.5698599815368652,0.8217092156410217,-0.004450822249054909,0.024035688489675522,-0.1590983122587204,-9.86913776397705,0.7671067714691162,-0.001536761992610991,0.16880688071250916
1781548227815880,163538912,-0.0058988044038414955,0.5698598623275757,0.8217093348503113,-0.00445507001131773,0.02863096445798874,-0.1395900845527649,-9.868660926818848,0.7338486313819885,-0.0062238858081400394,0.14964859187602997
1781548227843997,163555579,-0.005897007416933775,0.5698505640029907,0.8217156529426575,-0.004467250779271126,0.0388912558555603,-0.14199331402778625,-9.861112594604492,0.7931035757064819,-0.015559714287519455,0.1493796706199646
1781548227873862,163572246,-0.005901467986404896,0.5698549151420593,0.8217126131057739,-0.00446397066116333,0.031041478738188744,-0.13009527325630188,-9.839090347290039,0.7309032082557678,0.07894474267959595,0.10290542244911194
1781548227876355,163588913,-0.005904553458094597,0.5698458552360535,0.8217188715934753,-0.004469928797334433,0.02994358353316784,-0.14633482694625854,-9.869942665100098,0.7777103781700134,0.03499335050582886,0.05134705826640129
1781548227903798,163605580,-0.005917732138186693,0.5698360204696655,0.821725606918335,-0.004456514958292246,0.025795184075832367,-0.15558290481567383,-9.849539756774902,0.7075443863868713,0.16830745339393616,0.07570473104715347
1781548227907422,163622247,-0.005911429412662983,0.5698370933532715,0.8217249512672424,-0.0044528585858643055,0.03577651455998421,-0.1388927549123764,-9.859064102172852,0.6863114237785339,0.02031727321445942,0.14442360401153564
1781548227933789,163638914,-0.005910111125558615,0.5698424577713013,0.8217213153839111,-0.004447360057383776,0.025702202692627907,-0.14187172055244446,-9.854900360107422,0.6955833435058594,0.05558595806360245,0.15240196883678436
1781548227935564,163655581,-0.0059167128056287766,0.5698348879814148,0.8217264413833618,-0.004453042056411505,0.0346999391913414,-0.13436168432235718,-9.850970268249512,0.789722740650177,0.05637995898723602,0.09130287170410156
1781548227963818,163672248,-0.005932277534157038,0.5698312520980835,0.8217288851737976,-0.00445051584392786,0.030458558350801468,-0.1445896327495575,-9.851263999938965,0.7782611846923828,0.13982613384723663,0.14772765338420868
1781548227966144,163688915,-0.005937204230576754,0.5698366165161133,0.821725070476532,-0.004459627438336611,0.031248899176716805,-0.14795485138893127,-9.844673156738281,0.8027212619781494,0.03331572189927101,0.1299012154340744
1781548227993911,163705582,-0.005929095204919577,0.569837749004364,0.8217244148254395,-0.00445706769824028,0.03514339029788971,-0.14911353588104248,-9.87082576751709,0.68565833568573,0.0051801688969135284,0.0986921414732933
1781548228023709,163722249,-0.005926928948611021,0.5698421001434326,0.8217214345932007,-0.004459084942936897,0.039356160908937454,-0.12976625561714172,-9.8385648727417,0.7348218560218811,0.021060040220618248,0.12881265580654144
1781548228025425,163738916,-0.005926894955337048,0.5698460340499878,0.821718692779541,-0.004464045632630587,0.028327137231826782,-0.15076932311058044,-9.86717414855957,0.7597558498382568,0.021495455875992775,0.12380538135766983
1781548228054264,163755583,-0.005916113965213299,0.569841206073761,0.8217220306396484,-0.004470858722925186,0.02394270710647106,-0.15300802886486053,-9.848885536193848,0.727419912815094,-0.04448925703763962,0.22737035155296326
1781548228056341,163772250,-0.005903330631554127,0.569846510887146,0.8217183947563171,-0.0044709607027471066,0.02982914447784424,-0.15822571516036987,-9.86062240600586,0.6822262406349182,-0.0311578456312418,0.15281175076961517
1781548228084930,163788917,-0.005895476322621107,0.5698376893997192,0.8217245936393738,-0.0044670067727565765,0.03369133546948433,-0.14869153499603271,-9.844754219055176,0.678486704826355,0.012953621335327625,0.12059099227190018
1781548228086206,163805584,-0.005892583169043064,0.5698347091674805,0.8217267394065857,-0.004467622376978397,0.032189302146434784,-0.14767946302890778,-9.853926658630371,0.723706066608429,0.02298099547624588,0.1378539651632309
1781548228113950,163822251,-0.005892553366720676,0.5698277950286865,0.8217316269874573,-0.004453822039067745,0.03725692629814148,-0.14350247383117676,-9.854585647583008,0.6534247994422913,0.09588754177093506,0.1379563957452774
1781548228116085,163838918,-0.005902028642594814,0.5698294639587402,0.8217303156852722,-0.004456532187759876,0.027762096375226974,-0.14737550914287567,-9.853238105773926,0.7839342355728149,0.08489969372749329,0.17330190539360046
1781548228144640,163855585,-0.005894880276173353,0.5697916746139526,0.8217565417289734,-0.004457418341189623,0.03305140510201454,-0.13613548874855042,-9.85721492767334,0.7078774571418762,-0.0006147047970443964,0.10012645274400711
1781548228174747,163872252,-0.005897143855690956,0.5697920918464661,0.8217561841011047,-0.004451644606888294,0.038129523396492004,-0.14149978756904602,-9.854961395263672,0.7077493071556091,0.07731834053993225,0.16506743431091309
1781548228176013,163888919,-0.005894758738577366,0.5697868466377258,0.8217598795890808,-0.00444561243057251,0.034224383533000946,-0.13808095455169678,-9.861845970153809,0.6884885430335999,0.0512574166059494,0.08454111218452454
1781548228203885,163905586,-0.005894641857594252,0.5697846412658691,0.821761429309845,-0.004447537008672953,0.04340442642569542,-0.14257623255252838,-9.855208396911621,0.7421727776527405,0.033072397112846375,0.11399570852518082
1781548228205998,163922253,-0.005883421748876572,0.5698049664497375,0.821747362613678,-0.004455923568457365,0.02872767299413681,-0.15701338648796082,-9.849079132080078,0.7356927394866943,-0.056002162396907806,0.13399922847747803
1781548228233900,163938920,-0.005886670667678118,0.5697718262672424,0.821770429611206,-0.0044603170827031136,0.03572273626923561,-0.1389678418636322,-9.870511054992676,0.7691429257392883,0.042689964175224304,0.0012614253209903836
1781548228235695,163955587,-0.0058847288601100445,0.5697706937789917,0.8217712044715881,-0.00446085911244154,0.02609182335436344,-0.145183265209198,-9.857192039489746,0.7268050909042358,0.029102429747581482,0.18478921055793762
1781548228263874,163972254,-0.005880260840058327,0.5697779059410095,0.821766197681427,-0.004463803023099899,0.030283426865935326,-0.13732637465000153,-9.845396041870117,0.7311848998069763,0.003861114149913192,0.10464707762002945
1781548228265709,163988921,-0.0058812228962779045,0.5697690844535828,0.8217722177505493,-0.004458101466298103,0.025981146842241287,-0.13030268251895905,-9.863329887390137,0.7031261920928955,0.06958329677581787,0.12372854351997375
1781548228294028,164005588,-0.005882993806153536,0.5697411894798279,0.8217915892601013,-0.004456563852727413,0.03239686042070389,-0.14571614563465118,-9.860376358032227,0.7298786640167236,0.05768619850277901,0.03168930858373642
1781548228323800,164022255,-0.005884101614356041,0.5697285532951355,0.8218003511428833,-0.004463456105440855,0.027268648147583008,-0.14721815288066864,-9.885660171508789,0.775161862373352,0.020394111052155495,0.06314170360565186
1781548228325447,164038922,-0.005883174482733011,0.5697254538536072,0.82180255651474,-0.004468976985663176,0.029904361814260483,-0.13403268158435822,-9.863609313964844,0.759358823299408,0.014439158141613007,0.11197230964899063
1781548228354112,164055589,-0.00587101886048913,0.5697239637374878,0.821803629398346,-0.004480565432459116,0.019129132851958275,-0.1416034996509552,-9.864198684692383,0.7498822212219238,-0.07330355048179626,0.07882948964834213
1781548228355639,164072256,-0.005868684966117144,0.5697062015533447,0.8218159675598145,-0.004485290497541428,0.03317276015877724,-0.14635269343852997,-9.84906005859375,0.7488064169883728,0.01077654305845499,0.1335638165473938
1781548228383789,164088923,-0.005873923189938068,0.569707453250885,0.821815013885498,-0.0044834204018116,0.02511908859014511,-0.14841260015964508,-9.861058235168457,0.7414556741714478,0.07903438061475754,0.1856984794139862
1781548228387118,164105590,-0.0058787488378584385,0.5697087645530701,0.8218140602111816,-0.004486908204853535,0.03370217606425285,-0.15023647248744965,-9.859528541564941,0.7708590030670166,0.05389551818370819,0.058928411453962326
1781548228413936,164122257,-0.0058888900093734264,0.5697143077850342,0.8218100666999817,-0.004491583909839392,0.0488724485039711,-0.14449664950370789,-9.87900447845459,0.7981877326965332,0.07954663783311844,0.09500391036272049
1781548228415817,164138924,-0.005884810816496611,0.569709062576294,0.8218136429786682,-0.004490056540817022,0.03658460080623627,-0.1339253932237625,-9.844218254089355,0.7071473598480225,0.024069534614682198,0.09136690199375153
1781548228444125,164155591,-0.005888506304472685,0.5697153210639954,0.8218092322349548,-0.004486511927098036,0.0284020584076643,-0.13851723074913025,-9.865671157836914,0.7261391878128052,0.07646031677722931,0.17892390489578247
1781548228473884,164172258,-0.005894036032259464,0.5697168111801147,0.8218083381652832,-0.004488171543926001,0.028713367879390717,-0.15235716104507446,-9.869366645812988,0.7628166079521179,0.0661511942744255,0.13941632211208344
1781548228476109,164188925,-0.005898987874388695,0.5697289705276489,0.8217998147010803,-0.004481257870793343,0.03611959144473076,-0.1553647518157959,-9.845919609069824,0.7126541137695312,0.0953112542629242,0.10243158787488937
1781548228504060,164205592,-0.005897239316254854,0.56971675157547,0.8218082189559937,-0.004491966683417559,0.03976742550730705,-0.14790478348731995,-9.848578453063965,0.7854453921318054,-0.01034752931445837,0.09079060703516006
1781548228506368,164222259,-0.005894745700061321,0.5697291493415833,0.821799635887146,-0.0044898041523993015,0.03187473490834236,-0.13101792335510254,-9.869366645812988,0.7100417017936707,0.03522386774420738,0.14548654854297638
1781548228533857,164238926,-0.005892062559723854,0.5697356462478638,0.8217951655387878,-0.004484536126255989,0.022358279675245285,-0.13864240050315857,-9.879077911376953,0.6914340257644653,0.04708254709839821,0.1759016215801239
1781548228536212,164255593,-0.005888485815376043,0.5697379112243652,0.8217936158180237,-0.004485917743295431,0.026031212881207466,-0.13427585363388062,-9.858169555664062,0.7255885601043701,0.01580943912267685,0.14767642319202423
1781548228564234,164272260,-0.005882923025637865,0.5697445273399353,0.8217893242835999,-0.0044793784618377686,0.03747149929404259,-0.15854758024215698,-9.859667778015137,0.6729928851127625,0.03586418181657791,0.18102417886257172
1781548228567552,164288927,-0.005879391450434923,0.5697145462036133,0.8218101263046265,-0.004477072507143021,0.034993186593055725,-0.14531202614307404,-9.839630126953125,0.7045989632606506,0.031074605882167816,0.052012987434864044
1781548228593941,164305594,-0.005872033536434174,0.5697233080863953,0.8218040466308594,-0.0044793360866606236,0.04072593152523041,-0.13918957114219666,-9.862154006958008,0.7162527441978455,-0.010309111326932907,0.08370869606733322
1781548228623722,164322261,-0.005865869112312794,0.5697177648544312,0.8218079209327698,-0.004489812534302473,0.025237295776605606,-0.1442856639623642,-9.868404388427734,0.7672475576400757,-0.03553761914372444,0.03553121164441109
1781548228625617,164338928,-0.005859707482159138,0.5697140693664551,0.8218104243278503,-0.00448623625561595,0.029929278418421745,-0.1360854208469391,-9.853720664978027,0.687822699546814,0.019382409751415253,0.03326449170708656
1781548228653896,164355595,-0.005861322861164808,0.5697227716445923,0.8218043446540833,-0.004489116370677948,0.03401346877217293,-0.13220879435539246,-9.862250328063965,0.7546589374542236,0.03896331787109375,0.1529269963502884
1781548228655640,164372262,-0.005865786224603653,0.5697055459022522,0.8218161463737488,-0.004496587440371513,0.036169759929180145,-0.14939606189727783,-9.849804878234863,0.7918357849121094,0.0362611785531044,-0.010321917943656445
1781548228683716,164388929,-0.005858509801328182,0.5697017312049866,0.8218188285827637,-0.004483605269342661,0.03932764008641243,-0.14842334389686584,-9.87146282196045,0.6302580833435059,0.05022009462118149,0.051398277282714844
1781548228685976,164405596,-0.005847704131156206,0.5697161555290222,0.821808934211731,-0.00448966771364212,0.030952073633670807,-0.15564726293087006,-9.834702491760254,0.7239749431610107,-0.04388735815882683,0.16319771111011505
1781548228713924,164422263,-0.005843956023454666,0.56971675157547,0.8218087553977966,-0.004486016929149628,0.02578098140656948,-0.14046984910964966,-9.861757278442383,0.6966333389282227,0.034032873809337616,0.1072467714548111
1781548228716226,164438930,-0.005850404035300016,0.5697187185287476,0.8218073844909668,-0.004479505121707916,0.022637447342276573,-0.14460036158561707,-9.884758949279785,0.720683753490448,0.10203459858894348,0.05363939329981804
1781548228744319,164455597,-0.005859720520675182,0.5697330832481384,0.8217973709106445,-0.004470669664442539,0.033044155687093735,-0.1475936472415924,-9.87834644317627,0.7186474800109863,0.12800586223602295,0.15165920555591583
1781548228773872,164472264,-0.005843982566148043,0.5697313547134399,0.8217987418174744,-0.004461236763745546,0.015313319861888885,-0.14139609038829803,-9.854249954223633,0.6172468662261963,-0.011564133688807487,0.05740446597337723
1781548228775478,164488931,-0.005842689424753189,0.5697319507598877,0.8217983245849609,-0.004445166792720556,0.035053983330726624,-0.13732635974884033,-9.873897552490234,0.6361362934112549,0.0964382216334343,0.09966541826725006
1781548228803765,164505598,-0.005831918213516474,0.569729208946228,0.8218002319335938,-0.0044465446844697,0.028420118615031242,-0.13831697404384613,-9.872763633728027,0.6974018216133118,-0.02492116019129753,0.12264001369476318
