host_t_us,sensor_t_us,qw,qx,qy,qz,ax,ay,az,gx,gy,gz
1781548220088639,161013674,-0.8307039141654968,-0.5475893616676331,0.057813018560409546,0.08206576108932495,0.19893577694892883,9.435403823852539,4.060370922088623,-1.7829384803771973,1.4873744249343872,-4.530489921569824
1781548220088916,161030341,-0.8305918574333191,-0.5477596521377563,0.05746859312057495,0.0823056548833847,0.19050997495651245,9.347166061401367,4.020563125610352,-2.3111236095428467,1.9084980487823486,-4.026867389678955
1781548220111764,161047008,-0.830238938331604,-0.5482852458953857,0.05720795691013336,0.08254648000001907,0.1230400875210762,9.308472633361816,4.000610828399658,0.672416627407074,1.5387917757034302,-3.990138530731201
1781548220141999,161063675,-0.8298690319061279,-0.5488288402557373,0.05699387192726135,0.08280152082443237,0.06953098624944687,9.314114570617676,4.019588947296143,0.8598118424415588,1.2149192094802856,-3.915566921234131
1781548220143942,161080342,-0.8296805024147034,-0.5490695238113403,0.056850407272577286,0.0831919014453888,0.13615508377552032,9.305001258850098,4.062714576721191,-1.5657812356948853,0.20351210236549377,-4.198511123657227
1781548220171662,161097009,-0.8297892808914185,-0.5488433837890625,0.05660172924399376,0.08376816660165787,0.10297290980815887,9.215561866760254,4.118000507354736,-5.483769416809082,-0.04836959019303322,-5.302739143371582
1781548220173057,161113676,-0.8299229145050049,-0.5485543608665466,0.056363049894571304,0.08449550718069077,0.003146049100905657,9.193075180053711,4.166469573974609,-5.989211082458496,-0.7006740570068359,-6.087742805480957
1781548220201179,161130343,-0.8298264741897583,-0.5485917329788208,0.056246355175971985,0.08527322858572006,-0.019152265042066574,9.237805366516113,4.229392051696777,-3.207875967025757,-1.4856265783309937,-6.175210475921631
1781548220202593,161147010,-0.8299453258514404,-0.5482928156852722,0.056223053485155106,0.08605129271745682,0.07530926167964935,9.229724884033203,4.248806476593018,-5.883328437805176,-2.135497570037842,-5.5686116218566895
1781548220233487,161163677,-0.8300344347953796,-0.5480282306671143,0.05618881434202194,0.08689586818218231,0.1758962720632553,9.108670234680176,4.235663414001465,-5.607760906219482,-2.314222812652588,-6.020291328430176
1781548220234910,161180344,-0.829800009727478,-0.5482325553894043,0.05614177882671356,0.08787021040916443,0.13719484210014343,9.029031753540039,4.2275519371032715,-1.770247459411621,-2.574537515640259,-7.183531284332275
1781548220262778,161197011,-0.8293928503990173,-0.5486571788787842,0.056109946221113205,0.08907637000083923,0.06527342647314072,9.009288787841797,4.171098232269287,0.057699017226696014,-3.467383861541748,-8.637872695922852
1781548220293390,161213678,-0.8285952806472778,-0.5496308207511902,0.05613022670149803,0.0904732272028923,-0.048579417169094086,9.10784912109375,4.148997783660889,4.619540691375732,-4.298555850982666,-9.98054313659668
1781548220294503,161230345,-0.8276280164718628,-0.5508121848106384,0.05629887804389,0.09202418476343155,-0.05966036766767502,9.294397354125977,4.132749080657959,6.478320121765137,-5.662792682647705,-10.482887268066406
1781548220322638,161247012,-0.827140212059021,-0.5512415170669556,0.05641007423400879,0.0937550887465477,0.015250315889716148,9.309722900390625,4.09456205368042,0.27689263224601746,-6.307232856750488,-11.129645347595215
1781548220325198,161263679,-0.8267816305160522,-0.5514420866966248,0.056517813354730606,0.09565453976392746,0.029767915606498718,9.225629806518555,4.089705467224121,-1.5822895765304565,-7.025888442993164,-11.929750442504883
1781548220351665,161280346,-0.8262255191802979,-0.5518900156021118,0.056709740310907364,0.09773905575275421,-0.009052693843841553,9.22348690032959,4.08955192565918,0.5563145875930786,-8.115056037902832,-12.887998580932617
1781548220353621,161297013,-0.8255873322486877,-0.5524054765701294,0.057050373405218124,0.099996417760849,-0.09653528034687042,9.326459884643555,4.082912921905518,1.2845615148544312,-9.607192993164062,-13.387874603271484
1781548220381897,161313680,-0.8250238299369812,-0.5527641177177429,0.05761394649744034,0.10231422632932663,-0.16893140971660614,9.410902976989746,4.08019495010376,0.23942133784294128,-11.178354263305664,-12.772937774658203
1781548220383065,161330347,-0.8245041966438293,-0.5530608296394348,0.058376505970954895,0.10444537550210953,-0.20661242306232452,9.471278190612793,4.081816673278809,-0.06369885057210922,-11.622106552124023,-10.90188980102539
1781548220412503,161347014,-0.8238993287086487,-0.553501546382904,0.05934040620923042,0.10632368922233582,-0.2647557556629181,9.578866958618164,4.0837907791137695,1.32218599319458,-11.739474296569824,-8.822237014770508
1781548220441942,161363681,-0.8234400153160095,-0.5537416934967041,0.060584284365177155,0.10791793465614319,-0.21628247201442719,9.547237396240234,4.023688793182373,-0.04770367965102196,-12.32675838470459,-5.957683563232422
1781548220443914,161380348,-0.8230274319648743,-0.5539283752441406,0.06193613260984421,0.10933122038841248,-0.01257129292935133,9.413776397705078,3.9553258419036865,-0.3728954493999481,-12.269667625427246,-4.4652180671691895
1781548220471845,161397015,-0.822117805480957,-0.5548526644706726,0.06346363574266434,0.11060427129268646,0.027032483369112015,9.456103324890137,3.8530385494232178,5.885924339294434,-12.39184284210205,-3.6922531127929688
1781548220473963,161413682,-0.8213034272193909,-0.55564284324646,0.06503646075725555,0.11176766455173492,-0.016536012291908264,9.538281440734863,3.8368077278137207,4.846189022064209,-12.290314674377441,-2.7710015773773193
1781548220501245,161430349,-0.8210833072662354,-0.5555638074874878,0.0665610209107399,0.11287465691566467,-0.060530342161655426,9.455100059509277,3.7722506523132324,-2.343742609024048,-12.196799278259277,-1.7875880002975464
1781548220503345,161447016,-0.8209564685821533,-0.5553687214851379,0.06794314831495285,0.11392930150032043,-0.16813282668590546,9.306784629821777,3.732569694519043,-3.4419515132904053,-11.242175102233887,-1.9126677513122559
1781548220531163,161463683,-0.820457398891449,-0.555729329586029,0.06929667294025421,0.11494676768779755,-0.19691555202007294,9.259516716003418,3.6525962352752686,1.1099075078964233,-10.678668975830078,-2.361158847808838
1781548220533237,161480350,-0.8199272751808167,-0.5561486482620239,0.07049450278282166,0.11596860736608505,-0.08459742367267609,9.239873886108398,3.6574654579162598,1.4348047971725464,-9.78751277923584,-3.0363993644714355
1781548220561583,161497017,-0.8193526268005371,-0.5566832423210144,0.07136663794517517,0.1169269010424614,0.06776724010705948,9.26036262512207,3.5745158195495605,2.0258047580718994,-7.642318248748779,-4.014151096343994
1781548220591894,161513684,-0.8186785578727722,-0.557436466217041,0.07185506075620651,0.11775854974985123,0.12430685758590698,9.292855262756348,3.472262144088745,3.391090154647827,-4.863288879394531,-4.955750942230225
1781548220593263,161530351,-0.818140983581543,-0.5580604672431946,0.07195139676332474,0.11847791075706482,0.1186453178524971,9.393741607666016,3.4765377044677734,1.8777761459350586,-2.2632534503936768,-5.652877330780029
1781548220622965,161547018,-0.8178807497024536,-0.5583634376525879,0.07160397619009018,0.11905621737241745,0.04156910628080368,9.417903900146484,3.448535442352295,-1.2836703062057495,0.648276686668396,-6.177822113037109
1781548220624179,161563685,-0.8176877498626709,-0.558626115322113,0.07100001722574234,0.11951086670160294,-0.03988771140575409,9.431295394897461,3.507413148880005,-1.9177252054214478,2.5678460597991943,-6.391072750091553
1781548220651695,161580352,-0.8174487352371216,-0.5590048432350159,0.07019032537937164,0.11985217779874802,-0.12583602964878082,9.371109962463379,3.509828805923462,-1.2034897804260254,4.231660842895508,-6.640836238861084
1781548220652941,161597019,-0.8170545101165771,-0.5596259832382202,0.06928449124097824,0.12016934156417847,-0.17669016122817993,9.364452362060547,3.5715456008911133,0.6884247660636902,4.990143299102783,-7.1189494132995605
1781548220681731,161613686,-0.8166349530220032,-0.5603046417236328,0.06828561425209045,0.120429627597332,-0.16947995126247406,9.425209045410156,3.625108480453491,1.0589509010314941,5.764645576477051,-7.2060065269470215
1781548220683310,161630353,-0.8160398602485657,-0.5612615346908569,0.06731586158275604,0.12055274844169617,-0.11700854450464249,9.546695709228516,3.705641031265259,3.3850715160369873,6.282778263092041,-6.5955281257629395
1781548220711779,161647020,-0.8159122467041016,-0.56158447265625,0.06618183106184006,0.12054100632667542,-0.07720387727022171,9.543861389160156,3.732926845550537,-2.0490803718566895,7.4211859703063965,-5.79408073425293
1781548220741755,161663687,-0.8160262107849121,-0.5615933537483215,0.06497418880462646,0.12038511037826538,-0.059277720749378204,9.480829238891602,3.7679154872894287,-4.739414691925049,8.234582901000977,-4.926809787750244
1781548220744062,161680354,-0.8160907030105591,-0.5616938471794128,0.06378530710935593,0.12011457979679108,-0.15401512384414673,9.447148323059082,3.7764503955841064,-3.96685791015625,8.62328052520752,-4.293381214141846
1781548220771830,161697021,-0.8161134123802185,-0.561861515045166,0.06266956031322479,0.11976353079080582,-0.22386431694030762,9.470452308654785,3.7691256999969482,-3.332699775695801,8.561758041381836,-3.62483811378479
1781548220774163,161713688,-0.8160722851753235,-0.5621241927146912,0.061639051884412766,0.11934573948383331,-0.2696036398410797,9.496826171875,3.770111083984375,-2.454158306121826,8.396223068237305,-3.012476921081543
1781548220802885,161730355,-0.8161157965660095,-0.5622656941413879,0.06064706668257713,0.11888802796602249,-0.31175151467323303,9.451620101928711,3.761955976486206,-3.413059711456299,8.264266014099121,-2.519432306289673
1781548220803631,161747022,-0.8161264657974243,-0.5624502301216125,0.05973603203892708,0.11840253323316574,-0.3310793340206146,9.402983665466309,3.7414357662200928,-2.9664251804351807,7.944594383239746,-2.091508150100708
1781548220832147,161763689,-0.8160313367843628,-0.5627762079238892,0.058872122317552567,0.11794047057628632,-0.3193143308162689,9.39578628540039,3.7420341968536377,-1.7356576919555664,7.657102108001709,-2.188297986984253
1781548220833044,161780356,-0.8159406781196594,-0.5630974173545837,0.058028385043144226,0.11745200306177139,-0.3101067841053009,9.449548721313477,3.71582293510437,-1.7524466514587402,7.6424150466918945,-1.9565672874450684
1781548220861549,161797023,-0.8159027099609375,-0.5633495450019836,0.05723155289888382,0.11689663678407669,-0.298389732837677,9.54788589477539,3.714481830596924,-2.279492139816284,7.606096267700195,-1.329529881477356
1781548220891834,161813690,-0.8160951733589172,-0.5632709860801697,0.0564708411693573,0.11629906296730042,-0.29718172550201416,9.565116882324219,3.743016481399536,-4.981338024139404,7.3885297775268555,-0.6396389007568359
1781548220893369,161830357,-0.8164930939674377,-0.5628890991210938,0.05577060952782631,0.11569192260503769,-0.31660035252571106,9.492952346801758,3.758906126022339,-7.427390098571777,6.9324951171875,-0.0664137452840805
1781548220922324,161847024,-0.8168668746948242,-0.5625242590904236,0.05510472133755684,0.11514506489038467,-0.3556825518608093,9.37472152709961,3.7780587673187256,-7.233157634735107,6.509988784790039,-0.29622378945350647
1781548220923424,161863691,-0.8170114159584045,-0.562473714351654,0.0545772947371006,0.11461856216192245,-0.36831048130989075,9.319561004638672,3.800588369369507,-4.477907180786133,5.804817199707031,-0.18005727231502533
1781548220951724,161880358,-0.817105233669281,-0.5624682903289795,0.05407080426812172,0.11421456933021545,-0.35674935579299927,9.32972526550293,3.8377840518951416,-4.0593953132629395,5.237330436706543,-0.8399685621261597
1781548220953109,161897025,-0.817184329032898,-0.5624740123748779,0.0535876490175724,0.1138484850525856,-0.28374946117401123,9.318034172058105,3.8423516750335693,-3.9347004890441895,4.957998275756836,-0.9797627925872803
1781548220982020,161913692,-0.8171853423118591,-0.5625791549682617,0.05310851335525513,0.11354488879442215,-0.23754887282848358,9.352846145629883,3.8314368724823,-3.0949618816375732,4.745271682739258,-1.4127837419509888
1781548220984109,161930359,-0.8172149062156677,-0.5626385807991028,0.05259927362203598,0.11327499151229858,-0.25060853362083435,9.413633346557617,3.819429397583008,-3.4976956844329834,4.758756160736084,-1.6779903173446655
1781548221011542,161947026,-0.8173396587371826,-0.562547504901886,0.0520770438015461,0.11306831240653992,-0.3084547817707062,9.395874977111816,3.786935806274414,-4.744382381439209,4.500401973724365,-1.9597307443618774
1781548221042200,161963693,-0.8174569010734558,-0.5624584555625916,0.051635339856147766,0.11286498606204987,-0.3257826864719391,9.399816513061523,3.7868382930755615,-4.642327785491943,4.04032039642334,-1.6706652641296387
1781548221043432,161980360,-0.817625880241394,-0.5622910261154175,0.051195815205574036,0.11267520487308502,-0.3261096775531769,9.357901573181152,3.7715420722961426,-5.286346435546875,3.9340147972106934,-1.6694999933242798
1781548221071805,161997027,-0.8177284598350525,-0.5622180700302124,0.05071881040930748,0.1125108078122139,-0.3504023551940918,9.344030380249023,3.810900926589966,-4.535574436187744,4.096437931060791,-2.0411274433135986
1781548221073368,162013694,-0.8177040219306946,-0.5623207092285156,0.050327397882938385,0.11235221475362778,-0.37292158603668213,9.407294273376465,3.8061835765838623,-2.9937405586242676,3.6827163696289062,-1.9019991159439087
1781548221101342,162030361,-0.8176562190055847,-0.5624582171440125,0.04999033734202385,0.11216196417808533,-0.3445572257041931,9.489103317260742,3.76401686668396,-2.65411639213562,3.516732692718506,-1.5475066900253296
1781548221103696,162047028,-0.8177091479301453,-0.5624508261680603,0.049682196229696274,0.11194931715726852,-0.32321897149086,9.465744972229004,3.7782766819000244,-3.8281004428863525,3.3792569637298584,-1.1765578985214233
1781548221131757,162063695,-0.8178781867027283,-0.5622738599777222,0.049389440566301346,0.11173253506422043,-0.33795082569122314,9.415947914123535,3.7711572647094727,-5.216704845428467,3.1965482234954834,-0.9524338245391846
1781548221133454,162080362,-0.8179658055305481,-0.5622159838676453,0.04916906729340553,0.11147921532392502,-0.34710657596588135,9.412206649780273,3.798140525817871,-4.165266036987305,3.0044918060302734,-0.5682305693626404
1781548221162392,162097029,-0.8181050419807434,-0.5620846748352051,0.04893254116177559,0.11122379451990128,-0.3407464921474457,9.38564682006836,3.774254322052002,-4.78944730758667,3.0564470291137695,-0.5578190088272095
1781548221194713,162113696,-0.8181900978088379,-0.5620338916778564,0.04869775474071503,0.11095698177814484,-0.3624346852302551,9.398858070373535,3.769292116165161,-4.120545387268066,3.138932466506958,-0.5512238144874573
1781548221195099,162130363,-0.8181877732276917,-0.5621001124382019,0.0485314205288887,0.11071145534515381,-0.39478600025177,9.389571189880371,3.772935152053833,-3.080388307571411,2.7324843406677246,-0.512164294719696
1781548221222596,162147030,-0.8181595206260681,-0.562190592288971,0.04841911420226097,0.1105102151632309,-0.39324942231178284,9.39304256439209,3.8184328079223633,-2.8172173500061035,2.270418405532837,-0.5787957310676575
1781548221224247,162163697,-0.8182073831558228,-0.5621668696403503,0.04832237586379051,0.110318623483181,-0.3771052956581116,9.39897632598877,3.7995450496673584,-3.7452428340911865,2.0792324542999268,-0.4804174304008484
1781548221251279,162180364,-0.8181799650192261,-0.5622478723526001,0.048267435282468796,0.11013295501470566,-0.3646354079246521,9.391180038452148,3.8074429035186768,-2.835594654083252,1.8863561153411865,-0.43947547674179077
1781548221253977,162197031,-0.8181520700454712,-0.5623269081115723,0.04828200861811638,0.10993025451898575,-0.31752288341522217,9.421785354614258,3.811126708984375,-2.785983085632324,1.5512908697128296,-0.0771070271730423
1781548221282650,162213698,-0.8182277083396912,-0.5622648596763611,0.048267435282468796,0.10969138145446777,-0.3133160471916199,9.402514457702637,3.7859561443328857,-3.9904587268829346,1.784379005432129,0.13895529508590698
1781548221284594,162230365,-0.8183091282844543,-0.5621950030326843,0.048235565423965454,0.109455406665802,-0.3234335780143738,9.392730712890625,3.787442207336426,-4.071113109588623,1.8640217781066895,0.06081095710396767
1781548221311832,162247032,-0.8183667063713074,-0.5621577501296997,0.048253074288368225,0.10920815169811249,-0.3430890142917633,9.339395523071289,3.785855293273926,-3.7537455558776855,1.6521791219711304,0.2885846495628357
1781548221343622,162263699,-0.8182663321495056,-0.5623375773429871,0.04830396547913551,0.10901103913784027,-0.3531697988510132,9.369084358215332,3.779069662094116,-1.9139219522476196,1.3754469156265259,-0.05483679473400116
1781548221345204,162280366,-0.8180044293403625,-0.5627485513687134,0.048433028161525726,0.10879886895418167,-0.34758260846138,9.44821834564209,3.8064122200012207,0.07484671473503113,1.1117897033691406,0.13361506164073944
1781548221373000,162297033,-0.8181278109550476,-0.5625988841056824,0.048510774970054626,0.10861044377088547,-0.3550989031791687,9.43884563446045,3.798323392868042,-4.616061687469482,1.0216331481933594,0.2763034403324127
1781548221374283,162313700,-0.8181561231613159,-0.5625913739204407,0.04865572974085808,0.10837072879076004,-0.33505600690841675,9.409866333007812,3.7831573486328125,-3.3800570964813232,0.9000880122184753,0.7017816305160522
1781548221401468,162330367,-0.8180129528045654,-0.562836766242981,0.04887651652097702,0.10807761549949646,-0.32283487915992737,9.419811248779297,3.74446177482605,-1.2202017307281494,0.8257725238800049,1.0852419137954712
1781548221403033,162347034,-0.8179254531860352,-0.5629962086677551,0.049099430441856384,0.1078086867928505,-0.3009520173072815,9.47014331817627,3.8070974349975586,-1.9256267547607422,0.6717891097068787,1.0296368598937988
1781548221431361,162363701,-0.817997395992279,-0.5629293918609619,0.04927688091993332,0.10752921551465988,-0.30672040581703186,9.394952774047852,3.727701187133789,-3.844529867172241,0.8577116131782532,1.1073459386825562
1781548221433689,162380368,-0.8181071281433105,-0.5628063678741455,0.04939684644341469,0.10728348791599274,-0.33061763644218445,9.34333324432373,3.7768990993499756,-4.3609724044799805,1.0233235359191895,0.7435944080352783
1781548221461418,162397035,-0.8180565237998962,-0.5629086494445801,0.049538273364305496,0.10706766694784164,-0.3174940049648285,9.324041366577148,3.7243826389312744,-2.4678092002868652,0.8912131190299988,0.4606892168521881
1781548221491385,162413702,-0.8179883360862732,-0.5630298852920532,0.04965147376060486,0.10689815878868103,-0.33432939648628235,9.323939323425293,3.729688882827759,-2.3294878005981445,0.8835548162460327,0.07395027577877045
1781548221493780,162430369,-0.8178508877754211,-0.5632386803627014,0.0497313067317009,0.10681366175413132,-0.3287656009197235,9.317832946777344,3.7244553565979004,-1.622564435005188,0.7820772528648376,-0.6157804727554321
1781548221521661,162447036,-0.8177032470703125,-0.5634411573410034,0.04977242276072502,0.10685645788908005,-0.31061768531799316,9.305724143981934,3.7397661209106445,-1.6908737421035767,0.5027453303337097,-1.4859591722488403
1781548221523439,162463703,-0.8174411654472351,-0.5638144612312317,0.04966910183429718,0.10694028437137604,-0.27901121973991394,9.377754211425781,3.6941897869110107,-0.40694737434387207,1.2323614358901978,-2.4212708473205566
1781548221551314,162480370,-0.8172698020935059,-0.5640530586242676,0.049470577389001846,0.10708322376012802,-0.3034105896949768,9.399340629577637,3.693110466003418,-1.605967402458191,1.4784352779388428,-3.0071356296539307
1781548221552913,162497037,-0.8174524903297424,-0.5637889504432678,0.04914754256606102,0.10722791403532028,-0.3197700083255768,9.439748764038086,3.74467134475708,-5.896236896514893,1.9241098165512085,-3.066173791885376
1781548221582862,162513704,-0.8175745010375977,-0.5636186003684998,0.04884813353419304,0.10733196884393692,-0.3123817443847656,9.350507736206055,3.723745346069336,-5.102715492248535,1.9941855669021606,-2.826732873916626
1781548221584145,162530371,-0.8175250887870789,-0.5636911392211914,0.048506587743759155,0.10748150944709778,-0.3429965674877167,9.3103666305542,3.711477518081665,-3.119960308074951,2.1715025901794434,-3.452195167541504
1781548221612034,162547038,-0.8172397017478943,-0.5640901923179626,0.048260703682899475,0.10766920447349548,-0.36520037055015564,9.40013599395752,3.713081121444702,-0.31251341104507446,1.6451743841171265,-3.5822951793670654
1781548221641768,162563705,-0.8169478178024292,-0.5644924640655518,0.04806794598698616,0.10786253958940506,-0.37381452322006226,9.486845970153809,3.709089756011963,-0.23118023574352264,1.3308422565460205,-3.4096391201019287
1781548221643255,162580372,-0.8169466853141785,-0.5644770264625549,0.04785475507378578,0.10804516077041626,-0.35149914026260376,9.479620933532715,3.7047576904296875,-3.7172865867614746,1.2719330787658691,-3.0803754329681396
1781548221671373,162597039,-0.8169233202934265,-0.5644955039024353,0.04769483953714371,0.10819701105356216,-0.3281724750995636,9.463680267333984,3.7448692321777344,-3.391557216644287,1.116425633430481,-2.7235522270202637
1781548221674052,162613706,-0.8169055581092834,-0.564520001411438,0.04752233251929283,0.10827886313199997,-0.30431807041168213,9.465914726257324,3.7059662342071533,-3.365880250930786,1.4668842554092407,-2.375936508178711
1781548221702032,162630373,-0.8168544769287109,-0.5646056532859802,0.04742501303553581,0.10825949907302856,-0.3198400139808655,9.468904495239258,3.7167305946350098,-2.8039116859436035,1.46231210231781,-1.5631942749023438
1781548221702859,162647040,-0.8167626261711121,-0.5647579431533813,0.04734838753938675,0.10819147527217865,-0.37658384442329407,9.477005958557129,3.736891269683838,-2.2398688793182373,1.562214732170105,-1.2653697729110718
1781548221732096,162663707,-0.8167580962181091,-0.5647817254066467,0.047342825680971146,0.10810428112745285,-0.38761070370674133,9.454888343811035,3.7549757957458496,-3.241530418395996,1.1794838905334473,-0.7722100615501404
1781548221733613,162680374,-0.8167916536331177,-0.5647485256195068,0.04735321179032326,0.10802023112773895,-0.37439897656440735,9.380010604858398,3.730616569519043,-3.699127674102783,1.04597806930542,-0.6816309094429016
1781548221762220,162697041,-0.8167204260826111,-0.5648607015609741,0.04736838489770889,0.10796511918306351,-0.3350934088230133,9.395731925964355,3.7587878704071045,-2.4813072681427,0.9880419373512268,-0.9466966986656189
1781548221792479,162713708,-0.8167411088943481,-0.564844012260437,0.04738491028547287,0.10788894444704056,-0.31158164143562317,9.415925979614258,3.73244047164917,-3.5535058975219727,0.9940736293792725,-0.7145943641662598
1781548221794878,162730375,-0.8168990015983582,-0.5646295547485352,0.04731760546565056,0.1078459620475769,-0.3418099880218506,9.411866188049316,3.725792169570923,-5.269967079162598,1.2298643589019775,-1.061620831489563
1781548221822570,162747042,-0.817069411277771,-0.5643813610076904,0.04731902852654457,0.10785380005836487,-0.39100080728530884,9.364545822143555,3.720343589782715,-5.473690032958984,0.6379163265228271,-1.0590083599090576
1781548221823796,162763709,-0.817159116268158,-0.5642443895339966,0.04731728881597519,0.10789046436548233,-0.3838346302509308,9.338825225830078,3.7269654273986816,-4.5480475425720215,0.6040948033332825,-1.322345495223999
1781548221851249,162780376,-0.8171495199203491,-0.5642572045326233,0.047298531979322433,0.10790424793958664,-0.32838761806488037,9.357994079589844,3.7069313526153564,-3.3252580165863037,0.8549710512161255,-1.3905901908874512
1781548221853646,162797043,-0.8170946836471558,-0.5643404722213745,0.04723270237445831,0.1079130619764328,-0.3122914135456085,9.385598182678223,3.714323043823242,-2.787545680999756,1.1688547134399414,-1.6010754108428955
1781548221882053,162813710,-0.8170226812362671,-0.5644477605819702,0.04714129492640495,0.1079372838139534,-0.3206643760204315,9.429656982421875,3.6856372356414795,-2.610638380050659,1.2749168872833252,-1.8060283660888672
1781548221884113,162830377,-0.8170363306999207,-0.5644330382347107,0.04702601954340935,0.10796108841896057,-0.36954566836357117,9.46113395690918,3.6949872970581055,-3.6452763080596924,1.3487199544906616,-1.7899689674377441
1781548221912446,162847044,-0.817078173160553,-0.564379096031189,0.04695921763777733,0.10795536637306213,-0.3750132918357849,9.466043472290039,3.7272632122039795,-3.9298715591430664,1.17340087890625,-1.4054712057113647
1781548221941933,162863711,-0.8172261714935303,-0.564168393611908,0.0468921922147274,0.10796572268009186,-0.3544846773147583,9.44143009185791,3.7464048862457275,-5.227475643157959,1.022875428199768,-1.3676798343658447
1781548221944822,162880378,-0.8173295259475708,-0.5640164613723755,0.046841707080602646,0.10799863189458847,-0.3558320999145508,9.400266647338867,3.747929096221924,-4.719665050506592,0.8773695230484009,-1.4797865152359009
1781548221972226,162897045,-0.817387580871582,-0.5639321804046631,0.046805981546640396,0.10801538825035095,-0.3663427233695984,9.375174522399902,3.739173173904419,-4.146939754486084,0.8902398943901062,-1.3907057046890259
1781548221973937,162913712,-0.8173940777778625,-0.5639184713363647,0.046807996928691864,0.10803685337305069,-0.35582008957862854,9.36966609954834,3.738150119781494,-3.5239105224609375,0.6858249306678772,-1.3344602584838867
1781548222001587,162930379,-0.8172669410705566,-0.5640966296195984,0.04685591906309128,0.1080479547381401,-0.34776926040649414,9.39442253112793,3.7459945678710938,-1.8906142711639404,0.5790839195251465,-1.2548686265945435
1781548222002974,162947046,-0.8171775341033936,-0.5642209649085999,0.04686855524778366,0.10806996375322342,-0.3739224374294281,9.445801734924316,3.7432548999786377,-2.368431806564331,0.7047653794288635,-1.4080709218978882
1781548222031965,162963713,-0.8172173500061035,-0.5641520023345947,0.046885810792446136,0.10812129825353622,-0.3848174512386322,9.445655822753906,3.7416489124298096,-3.9619901180267334,0.4622771739959717,-1.395379900932312
1781548222033157,162980380,-0.8174914121627808,-0.5637399554252625,0.046840231865644455,0.1082172691822052,-0.3704884946346283,9.359682083129883,3.7526917457580566,-6.859300136566162,0.46424946188926697,-1.6068514585494995
1781548222061436,162997047,-0.8175472021102905,-0.5636345148086548,0.04681555554270744,0.10835618525743484,-0.3811599612236023,9.314640045166016,3.7287654876708984,-4.28823184967041,0.3422689437866211,-2.026899576187134
1781548222092416,163013714,-0.8174858689308167,-0.5636974573135376,0.046791404485702515,0.1085021123290062,-0.36440742015838623,9.356491088867188,3.735429525375366,-2.890559434890747,0.3990650177001953,-2.206841468811035
1781548222093297,163030381,-0.8174343705177307,-0.5637519359588623,0.04672202840447426,0.10863697528839111,-0.3556539714336395,9.389237403869629,3.7276854515075684,-3.005791187286377,0.6896795630455017,-2.311828136444092
1781548222122526,163047048,-0.8174326419830322,-0.5637359619140625,0.04662159085273743,0.10877574980258942,-0.34204161167144775,9.425148010253906,3.7177534103393555,-3.6198298931121826,0.8141316175460815,-2.39262318611145
1781548222123912,163063715,-0.8174710273742676,-0.563660204410553,0.046495333313941956,0.10893448442220688,-0.36085912585258484,9.42098617553711,3.730126142501831,-4.136476516723633,0.8541386723518372,-2.5550589561462402
1781548222151882,163080382,-0.8174628615379333,-0.5636587142944336,0.046358074992895126,0.10906077176332474,-0.3568578064441681,9.424372673034668,3.7004473209381104,-3.536498785018921,1.0832442045211792,-2.471548557281494
1781548222153692,163097049,-0.8174834847450256,-0.5636178255081177,0.046247631311416626,0.10916520655155182,-0.4046879708766937,9.430511474609375,3.7049314975738525,-3.842097520828247,0.9869663119316101,-2.216600179672241
1781548222182088,163113716,-0.8175392746925354,-0.5635311007499695,0.04610210657119751,0.1092567890882492,-0.42175769805908203,9.416604995727539,3.7377982139587402,-4.25904655456543,1.2173396348953247,-2.238191604614258
1781548222183837,163130383,-0.8175485730171204,-0.5635061860084534,0.04598788172006607,0.1093638464808464,-0.4032650887966156,9.381549835205078,3.749037981033325,-3.71217679977417,1.0148199796676636,-2.2549805641174316
1781548222211925,163147050,-0.817473828792572,-0.5636070370674133,0.04591171815991402,0.10943389683961868,-0.3896731436252594,9.405452728271484,3.758965253829956,-2.6405670642852783,1.003204584121704,-2.0076770782470703
1781548222272647,163163717,-0.8174052834510803,-0.563701868057251,0.04584776610136032,0.10948453843593597,-0.3455153703689575,9.434843063354492,3.759547233581543,-2.6824560165405273,1.012130618095398,-1.8411304950714111
1781548222274033,163180384,-0.8174200057983398,-0.5636814832687378,0.04576842486858368,0.10951311886310577,-0.35269805788993835,9.41956901550293,3.7243831157684326,-3.6564817428588867,1.118666648864746,-1.67816960811615
1781548222275079,163197051,-0.817389190196991,-0.56373131275177,0.045705121010541916,0.10951287299394608,-0.38098591566085815,9.443130493164062,3.7496023178100586,-3.065315008163452,1.1821733713150024,-1.5116487741470337
1781548222301340,163213718,-0.817427396774292,-0.5636872053146362,0.045637499541044235,0.109482541680336,-0.4204472303390503,9.428009986877441,3.722665309906006,-3.8538408279418945,1.2682576179504395,-1.2768571376800537
1781548222303205,163230385,-0.8175623416900635,-0.5634995698928833,0.04559646174311638,0.10945864021778107,-0.42918097972869873,9.415369987487793,3.756113052368164,-5.017797470092773,1.0211207866668701,-1.090742588043213
1781548222305281,163247052,-0.8175873160362244,-0.5634613037109375,0.04565359652042389,0.10944560915231705,-0.3907093405723572,9.366765022277832,3.762446880340576,-3.6816983222961426,0.5075605511665344,-0.9009396433830261
1781548222331984,163263719,-0.8175662755966187,-0.5634865760803223,0.0457167811691761,0.10944538563489914,-0.387581467628479,9.388903617858887,3.77140474319458,-3.1457903385162354,0.4581280052661896,-1.0032750368118286
1781548222333932,163280386,-0.8174846172332764,-0.5636022090911865,0.045774202793836594,0.10943664610385895,-0.4018454849720001,9.429566383361816,3.756579875946045,-2.404289722442627,0.5617825984954834,-1.0558195114135742
1781548222361918,163297053,-0.8174945116043091,-0.5635877847671509,0.04585802182555199,0.10940154641866684,-0.39785823225975037,9.396541595458984,3.7460055351257324,-3.4625935554504395,0.4613935351371765,-0.6913891434669495
1781548222392783,163313720,-0.8175476789474487,-0.5635150074958801,0.04591045528650284,0.10935697704553604,-0.35866037011146545,9.388395309448242,3.750037908554077,-3.977677583694458,0.6359953284263611,-0.7094077467918396
1781548222394651,163330387,-0.8175673484802246,-0.5634896755218506,0.045958660542964935,0.10931996256113052,-0.3773108720779419,9.38172721862793,3.738762140274048,-3.587378978729248,0.6580735445022583,-0.8100400567054749
1781548222421431,163347054,-0.8175328969955444,-0.5635409951210022,0.04596403241157532,0.10931101441383362,-0.4026196599006653,9.428426742553711,3.7347676753997803,-2.988041639328003,0.8321694731712341,-1.197137475013733
1781548222424420,163363721,-0.8175092935562134,-0.5635727047920227,0.045996155589818954,0.10931044071912766,-0.4020569920539856,9.434465408325195,3.708725929260254,-3.122610569000244,0.6454976201057434,-1.1215158700942993
1781548222456576,163380388,-0.8176692128181458,-0.5633392930030823,0.04602101072669029,0.10930739343166351,-0.40443524718284607,9.4041748046875,3.7304539680480957,-5.328402996063232,0.5522675514221191,-0.9181001782417297
1781548222456965,163397055,-0.8177252411842346,-0.563254714012146,0.04604249447584152,0.10931526869535446,-0.3700639009475708,9.384166717529297,3.7220468521118164,-4.095521926879883,0.6021610498428345,-1.1168417930603027
1781548222481644,163413722,-0.8177010416984558,-0.5632899403572083,0.04609711095690727,0.10929141193628311,-0.41024091839790344,9.414406776428223,3.729440450668335,-3.0765202045440674,0.5968591570854187,-0.9113254547119141
1781548222482723,163430389,-0.8177537322044373,-0.5632176399230957,0.04614625871181488,0.10924902558326721,-0.40261825919151306,9.398097038269043,3.7719528675079346,-3.9771013259887695,0.6453952193260193,-0.7366980314254761
1781548222511602,163447056,-0.8178999423980713,-0.5630040764808655,0.046177566051483154,0.10924313962459564,-0.3943921625614166,9.339923858642578,3.7540595531463623,-5.158014297485352,0.5409082770347595,-0.8906434178352356
1781548222541931,163463723,-0.8177812695503235,-0.5631653666496277,0.04623838886618614,0.1092725396156311,-0.39393678307533264,9.357182502746582,3.7565290927886963,-2.013798713684082,0.4155340790748596,-1.3028925657272339
1781548222543688,163480390,-0.8176152110099792,-0.5633980631828308,0.046303682029247284,0.10928916186094284,-0.384344220161438,9.457854270935059,3.753932476043701,-1.4215302467346191,0.49477970600128174,-1.264998197555542
1781548222572949,163497057,-0.81769859790802,-0.5632691979408264,0.04638316482305527,0.1092955619096756,-0.36884644627571106,9.480179786682129,3.7677621841430664,-4.40639591217041,0.2574652433395386,-0.8516349792480469
1781548222574564,163513724,-0.8178661465644836,-0.5630233883857727,0.04645528271794319,0.1092783510684967,-0.37451308965682983,9.421263694763184,3.7653326988220215,-5.387516498565674,0.32348203659057617,-0.6463238000869751
1781548222602102,163530391,-0.8180469274520874,-0.5627614259719849,0.046526987105607986,0.1092439666390419,-0.4030369222164154,9.336912155151367,3.7531869411468506,-5.524557590484619,0.39006227254867554,-0.5365732908248901
1781548222603776,163547058,-0.8180173635482788,-0.5627986192703247,0.04664362594485283,0.10922401398420334,-0.3794873058795929,9.344730377197266,3.7584569454193115,-2.999721050262451,0.2340296506881714,-0.6987656950950623
1781548222631739,163563725,-0.8179353475570679,-0.562915027141571,0.04672756418585777,0.10920168459415436,-0.36844366788864136,9.366783142089844,3.748178243637085,-2.3750529289245605,0.48124340176582336,-0.8708957433700562
1781548222633653,163580392,-0.817863941192627,-0.5630190968513489,0.04677838832139969,0.10917884856462479,-0.3539218008518219,9.430497169494629,3.7239630222320557,-2.508840799331665,0.6570233702659607,-0.9886501431465149
1781548222662252,163597059,-0.8180063962936401,-0.5628148913383484,0.0467802956700325,0.10916400700807571,-0.38607072830200195,9.399229049682617,3.740056037902832,-5.110464096069336,0.7294817566871643,-0.9655860066413879
1781548222692715,163613726,-0.818066418170929,-0.5627272129058838,0.0467987023293972,0.10915780812501907,-0.37086597084999084,9.387423515319824,3.735935926437378,-4.126398086547852,0.6699321866035461,-1.0507609844207764
1781548222694263,163630393,-0.8180475831031799,-0.562759518623352,0.04683561250567436,0.10911760479211807,-0.38137567043304443,9.400506019592285,3.7428157329559326,-3.1215219497680664,0.7653394341468811,-0.8826135993003845
1781548222722023,163647060,-0.8179933428764343,-0.5628479719161987,0.04687357693910599,0.10905149579048157,-0.3490149676799774,9.453044891357422,3.761740207672119,-2.6590845584869385,0.8797897696495056,-0.7806238532066345
1781548222722910,163663727,-0.8181490898132324,-0.5626424551010132,0.04686097428202629,0.10894785821437836,-0.3844752907752991,9.465404510498047,3.767765760421753,-5.151546955108643,1.1575084924697876,-0.5159295201301575
1781548222751282,163680394,-0.818378746509552,-0.5623298287391663,0.046884384006261826,0.10882765054702759,-0.39467954635620117,9.398505210876465,3.7784082889556885,-6.006741523742676,0.969997763633728,-0.18658852577209473
1781548222753557,163697061,-0.8184019327163696,-0.5623058080673218,0.046990904957056046,0.10873003304004669,-0.404032826423645,9.357887268066406,3.8215603828430176,-3.5304291248321533,0.5628198385238647,-0.24415306746959686
1781548222781965,163713728,-0.8183742761611938,-0.5623455047607422,0.04716164246201515,0.1086600199341774,-0.3714189827442169,9.360023498535156,3.80515193939209,-2.9363296031951904,0.12091114372015,-0.2080775797367096
1781548222783520,163730395,-0.8183062076568604,-0.5624388456344604,0.04734034091234207,0.10861214995384216,-0.32786130905151367,9.392390251159668,3.805294990539551,-2.479078769683838,0.011801051907241344,-0.35500481724739075
1781548222811758,163747062,-0.8183175325393677,-0.5624215602874756,0.04747443646192551,0.10855753719806671,-0.35110336542129517,9.38915729522705,3.7799994945526123,-3.4397084712982178,0.2436215877532959,-0.3883909583091736
1781548222841311,163763729,-0.8183867335319519,-0.5623143911361694,0.04759806767106056,0.10853620618581772,-0.3534283936023712,9.417806625366211,3.7626254558563232,-4.18740701675415,0.12882547080516815,-0.5430404543876648
1781548222843436,163780396,-0.8184456825256348,-0.5622238516807556,0.047777093946933746,0.10848267376422882,-0.3563421964645386,9.421170234680176,3.7506918907165527,-4.003265857696533,-0.05428612232208252,-0.16080935299396515
1781548222871616,163797063,-0.8185938596725464,-0.5620045065879822,0.04793531075119972,0.10843224823474884,-0.35169464349746704,9.397014617919922,3.7530369758605957,-5.089359283447266,-0.001972178230062127,-0.14498069882392883
1781548222873259,163813730,-0.8186172246932983,-0.5619611740112305,0.04814520478248596,0.10838663578033447,-0.3761995732784271,9.373781204223633,3.768791675567627,-3.579503059387207,-0.23202544450759888,-0.12820439040660858
1781548222902136,163830397,-0.8186222314834595,-0.5619465708732605,0.04834078252315521,0.10833712667226791,-0.3476528525352478,9.369574546813965,3.775163173675537,-3.355609178543091,-0.11849715560674667,-0.1838991791009903
1781548222903208,163847064,-0.8186147809028625,-0.561951220035553,0.04853004962205887,0.10828494280576706,-0.31523633003234863,9.395270347595215,3.7747395038604736,-3.203508138656616,-0.07071664929389954,-0.20957590639591217
1781548222931913,163863731,-0.818664014339447,-0.5618802309036255,0.048673756420612335,0.10821656882762909,-0.33166253566741943,9.387361526489258,3.779005289077759,-3.8764829635620117,0.21909748017787933,-0.22480271756649017
1781548222932944,163880398,-0.8188331127166748,-0.5616315007209778,0.04877777025103569,0.1081814244389534,-0.3302086591720581,9.366771697998047,3.7758734226226807,-5.381024360656738,0.21709966659545898,-0.4196512997150421
1781548222962104,163897065,-0.8188198208808899,-0.5616463422775269,0.048943884670734406,0.10813098400831223,-0.3267790675163269,9.350199699401855,3.7629940509796143,-3.1416280269622803,0.06462724506855011,-0.31675225496292114
1781548222991865,163913732,-0.8188602328300476,-0.5615822076797485,0.04905179142951965,0.10810787975788116,-0.3384929597377777,9.377206802368164,3.790072202682495,-3.846374988555908,0.2600649893283844,-0.6235924959182739
1781548222994045,163930399,-0.8188920617103577,-0.5615322589874268,0.04914423078298569,0.1080842912197113,-0.3048740029335022,9.375146865844727,3.7442593574523926,-3.7451794147491455,0.3706350028514862,-0.6846147775650024
1781548223022734,163947066,-0.8189309239387512,-0.5614794492721558,0.049195047467947006,0.10804101824760437,-0.3487808406352997,9.396817207336426,3.78511118888855,-3.811708450317383,0.6615568995475769,-0.7399766445159912
1781548223025277,163963733,-0.8189138770103455,-0.5615021586418152,0.0492805652320385,0.10801322758197784,-0.3640696406364441,9.392004013061523,3.7700421810150146,-3.1502082347869873,0.42890384793281555,-0.7621186375617981
1781548223052427,163980400,-0.8188897371292114,-0.5615417957305908,0.04938444122672081,0.10794270038604736,-0.30896395444869995,9.422975540161133,3.8050835132598877,-2.999067783355713,0.5096991658210754,-0.4613231420516968
1781548223053416,163997067,-0.8190081119537354,-0.5613786578178406,0.049458764493465424,0.10785916447639465,-0.2770138084888458,9.383796691894531,3.7690625190734863,-4.706911087036133,0.5848084092140198,-0.34433719515800476
1781548223082198,164013734,-0.8191671371459961,-0.5611560344696045,0.04945611208677292,0.1078118085861206,-0.31466129422187805,9.31240463256836,3.7963969707489014,-5.270376682281494,0.8983463048934937,-0.7705709338188171
1781548223083724,164030401,-0.8191466331481934,-0.5611807703971863,0.04951954260468483,0.10781014710664749,-0.3492308259010315,9.343802452087402,3.780470132827759,-3.1518471240997314,0.4820501506328583,-0.9855253100395203
1781548223111847,164047068,-0.8189917802810669,-0.5613991618156433,0.049671053886413574,0.10777922719717026,-0.33107906579971313,9.426454544067383,3.7835583686828613,-1.4675307273864746,0.18023014068603516,-0.6543403267860413
1781548223143027,164063735,-0.8190005421638489,-0.5613811016082764,0.04981735721230507,0.10773970931768417,-0.28001508116722107,9.439568519592285,3.785104751586914,-3.4295530319213867,0.09887141734361649,-0.43139466643333435
1781548223144768,164080402,-0.8191933631896973,-0.5610942840576172,0.04992879182100296,0.10771680623292923,-0.2934955954551697,9.410402297973633,3.7739410400390625,-5.68531608581543,0.11304807662963867,-0.4264899492263794
1781548223172059,164097069,-0.8192005753517151,-0.5610873103141785,0.05009572580456734,0.10761898010969162,-0.3078473210334778,9.41262435913086,3.792882204055786,-3.3260395526885986,0.21998105943202972,-0.030082114040851593
1781548223173266,164113736,-0.8192556500434875,-0.5610116124153137,0.050297949463129044,0.10750007629394531,-0.317783385515213,9.438333511352539,3.7993857860565186,-3.8646240234375,0.09438921511173248,0.2945268452167511
1781548223201480,164130403,-0.8194270730018616,-0.5607655644416809,0.05049745365977287,0.10738468170166016,-0.2951756715774536,9.397125244140625,3.8124704360961914,-5.275652885437012,-0.027290333062410355,0.3949926793575287
1781548223204068,164147070,-0.8195257782936096,-0.5606204867362976,0.050710778683423996,0.10728836804628372,-0.2983522117137909,9.35705280303955,3.8099958896636963,-4.423799991607666,-0.10229711979627609,0.26203712821006775
1781548223231924,164163737,-0.8195645809173584,-0.5605533719062805,0.050957754254341125,0.1072254478931427,-0.2921261489391327,9.350320816040039,3.8162238597869873,-3.7402734756469727,-0.37581512331962585,0.13718801736831665
1781548223234089,164180404,-0.8196330666542053,-0.5604415535926819,0.05116467550396919,0.10718806087970734,-0.2868095636367798,9.360832214355469,3.7814173698425293,-4.145658493041992,-0.2890905439853668,-0.1310729682445526
1781548223262703,164197071,-0.8196899890899658,-0.5603459477424622,0.05138900876045227,0.10714507102966309,-0.2849956452846527,9.385063171386719,3.790825366973877,-3.9946341514587402,-0.34210890531539917,-0.043375108391046524
1781548223292431,164213738,-0.819790780544281,-0.5601864457130432,0.05159246176481247,0.1071106567978859,-0.2698480486869812,9.358871459960938,3.7685859203338623,-4.541721343994141,-0.29239457845687866,-0.11629447340965271
1781548223293305,164230405,-0.8198242783546448,-0.5601280927658081,0.05175623297691345,0.1070794016122818,-0.2658465802669525,9.351349830627441,3.7684969902038574,-3.741323709487915,-0.10406439751386642,-0.40030086040496826
1781548223321496,164247072,-0.8198667764663696,-0.5600572228431702,0.05189616605639458,0.10705740004777908,-0.26532042026519775,9.380455017089844,3.7751355171203613,-3.8686835765838623,0.054241303354501724,-0.5099232792854309
1781548223323757,164263739,-0.8199561238288879,-0.5599198341369629,0.05200278013944626,0.10704001784324646,-0.2569616734981537,9.37708854675293,3.774312973022461,-4.453408241271973,0.28141310811042786,-0.570484459400177
1781548223351185,164280406,-0.8200610876083374,-0.5597736239433289,0.05205320194363594,0.10697709769010544,-0.25090521574020386,9.363242149353027,3.8159403800964355,-4.584955215454102,0.6831867694854736,-0.5521458387374878
1781548223353459,164297073,-0.8200982809066772,-0.5597289800643921,0.052087780088186264,0.1069081723690033,-0.2662728428840637,9.371580123901367,3.8102593421936035,-3.759650468826294,0.7895947694778442,-0.6839103698730469
1781548223382338,164313740,-0.8199953436851501,-0.5598869919776917,0.05217476561665535,0.10682746022939682,-0.2625656723976135,9.389832496643066,3.800100564956665,-2.0365169048309326,0.6881299614906311,-0.572853684425354
1781548223384430,164330407,-0.8199873566627502,-0.5599066019058228,0.052237994968891144,0.10675545781850815,-0.27621957659721375,9.410061836242676,3.8215558528900146,-3.203252077102661,0.7160733342170715,-0.5945731997489929
1781548223412207,164347074,-0.8200691938400269,-0.559791088104248,0.05233170464634895,0.10668542981147766,-0.2546454071998596,9.40056037902832,3.82580304145813,-4.289858341217041,0.5221725702285767,-0.3553890287876129
1781548223441448,164363741,-0.8200418949127197,-0.5598365664482117,0.052464451640844345,0.10659198462963104,-0.238448828458786,9.405951499938965,3.810450792312622,-2.924650192260742,0.47676125168800354,-0.20672011375427246
1781548223443853,164380408,-0.8200816512107849,-0.5597911477088928,0.05263026803731918,0.10644390434026718,-0.23211011290550232,9.444543838500977,3.845855236053467,-3.652191400527954,0.46234121918678284,0.3117769956588745
1781548223471893,164397075,-0.8202542662620544,-0.5595541596412659,0.05279456451535225,0.10627635568380356,-0.2620251178741455,9.431618690490723,3.8084940910339355,-5.237963676452637,0.43889284133911133,0.5752549171447754
1781548223473955,164413742,-0.820517361164093,-0.5591878890991211,0.052989523857831955,0.10607625544071198,-0.25088077783584595,9.335051536560059,3.8485119342803955,-6.2819504737854,0.34678956866264343,0.9959819316864014
1781548223501333,164430409,-0.8205042481422424,-0.5592227578163147,0.05326586589217186,0.10585734993219376,-0.2609119117259979,9.349797248840332,3.8279783725738525,-2.8839519023895264,-0.028391679748892784,0.9971984624862671
1781548223503170,164447076,-0.8205443620681763,-0.5591748952865601,0.05355863273143768,0.10565031319856644,-0.21943192183971405,9.380568504333496,3.849268913269043,-3.547858476638794,-0.2102162390947342,1.0607693195343018
1781548223531881,164463743,-0.8207082748413086,-0.5589422583580017,0.053783390671014786,0.10549363493919373,-0.20819737017154694,9.379424095153809,3.8430256843566895,-5.134629726409912,-0.07441770285367966,0.686093807220459
1781548223532994,164480410,-0.8208847641944885,-0.5586856603622437,0.05400882288813591,0.10536390542984009,-0.23675304651260376,9.345658302307129,3.828029155731201,-5.330541610717773,-0.1292416900396347,0.5802493691444397
1781548223561940,164497077,-0.8211134076118469,-0.5583509802818298,0.05419456958770752,0.105261892080307,-0.21991093456745148,9.303646087646484,3.818084239959717,-6.012364387512207,0.018242646008729935,0.36660102009773254
1781548223591313,164513744,-0.8212354183197021,-0.5581716299057007,0.05433499813079834,0.10518895834684372,-0.21539105474948883,9.300047874450684,3.8057761192321777,-4.767983913421631,0.20275653898715973,-0.11999549716711044
1781548223593368,164530411,-0.8212113380432129,-0.5582075715065002,0.054490040987730026,0.10510580986738205,-0.16588148474693298,9.377326011657715,3.7852566242218018,-2.9780654907226562,0.25234273076057434,-0.19527122378349304
1781548223621400,164547078,-0.8213440775871277,-0.5580266714096069,0.054566122591495514,0.10499051958322525,-0.17675848305225372,9.44304370880127,3.8301219940185547,-4.851455211639404,0.788672685623169,-0.09623971581459045
1781548223623684,164563745,-0.8216468095779419,-0.5576021075248718,0.05460207909345627,0.10485775023698807,-0.16248904168605804,9.412434577941895,3.818408250808716,-6.904942035675049,1.0616145133972168,0.09850005060434341
1781548223651337,164580412,-0.8219262957572937,-0.5572206974029541,0.05464211851358414,0.10467413812875748,-0.21005937457084656,9.368107795715332,3.843003273010254,-6.544723987579346,1.0829371213912964,0.3003409504890442
1781548223653336,164597079,-0.8220887780189514,-0.5570144057273865,0.054727524518966675,0.1044517457485199,-0.20723044872283936,9.354990005493164,3.8331494331359863,-5.060698509216309,1.1203699111938477,0.5679296255111694
1781548223681851,164613746,-0.8221073746681213,-0.5570172071456909,0.054890137165784836,0.10420437902212143,-0.1755654215812683,9.42666244506836,3.8652968406677246,-3.2628400325775146,0.8360047936439514,0.8074851632118225
1781548223683366,164630413,-0.8222388625144958,-0.5568607449531555,0.05503923073410988,0.10392550379037857,-0.13763488829135895,9.453569412231445,3.858656406402588,-4.5931901931762695,0.9692168831825256,1.0768029689788818
1781548223711713,164647080,-0.8225865364074707,-0.5564011931419373,0.05516591668128967,0.1035672202706337,-0.15221278369426727,9.446749687194824,3.8936498165130615,-7.119871616363525,1.252647042274475,1.7051852941513062
1781548223741909,164663747,-0.8230146765708923,-0.555820107460022,0.05531550571322441,0.10320377349853516,-0.15879999101161957,9.295418739318848,3.9172213077545166,-8.098223686218262,1.1807903051376343,1.9625284671783447
1781548223743264,164680414,-0.8231819272041321,-0.5556133389472961,0.05548938736319542,0.10289114713668823,-0.21107204258441925,9.236083984375,3.8912813663482666,-4.9865498542785645,1.1055017709732056,1.4767451286315918
1781548223771668,164697081,-0.8229964375495911,-0.5559226870536804,0.05579289421439171,0.10253911465406418,-0.13821876049041748,9.2999906539917,3.9161579608917236,-0.6079814434051514,0.5651506185531616,1.6734760999679565
1781548223773160,164713748,-0.8230144381523132,-0.5559302568435669,0.05597265437245369,0.10225475579500198,-0.0738854631781578,9.363409996032715,3.866854667663574,-3.209540367126465,0.9842512011528015,1.1209590435028076
1781548223801311,164730415,-0.8231982588768005,-0.5557267665863037,0.056016359478235245,0.10185754299163818,-0.13448917865753174,9.381799697875977,3.9026288986206055,-5.070226192474365,1.1230465173721313,1.0441721677780151
1781548223803462,164747082,-0.8234835267066956,-0.5553394556045532,0.056094516068696976,0.10161901265382767,-0.16403259336948395,9.30196762084961,3.887392997741699,-6.5496673583984375,0.9725719094276428,0.7179304361343384
1781548223831665,164763749,-0.823618471622467,-0.5551594495773315,0.0562414824962616,0.10142800956964493,-0.1551019549369812,9.299832344055176,3.8941259384155273,-4.775641441345215,0.6806894540786743,0.6042227745056152
1781548223833179,164780416,-0.8236371278762817,-0.5551491379737854,0.056405603885650635,0.10124237090349197,-0.12169882655143738,9.306127548217773,3.905754566192627,-3.35899019241333,0.48575127124786377,0.4310937821865082
1781548223861628,164797083,-0.8237118124961853,-0.5550497174263,0.05654628202319145,0.1010996624827385,-0.11766702681779861,9.363247871398926,3.9558491706848145,-4.112439155578613,0.5530486106872559,0.22857412695884705
1781548223891309,164813750,-0.8239213228225708,-0.5547577142715454,0.056645143777132034,0.10094092041254044,-0.10850422829389572,9.332029342651367,3.928039312362671,-5.738768577575684,0.7042531967163086,0.30223628878593445
1781548223893296,164830417,-0.8240875601768494,-0.5545220971107483,0.05673947185277939,0.10082607716321945,-0.1298966109752655,9.264869689941406,3.921807289123535,-5.275461196899414,0.6352654695510864,0.004130048211663961
1781548223921686,164847084,-0.8240034580230713,-0.5546474456787109,0.05691464617848396,0.10072438418865204,-0.07335871458053589,9.319110870361328,3.900092601776123,-2.2232463359832764,0.20734122395515442,-0.1050504818558693
1781548223923218,164863751,-0.8239374160766602,-0.5547422170639038,0.05706776678562164,0.10065571963787079,-0.0538022555410862,9.378106117248535,3.911060094833374,-2.4977121353149414,0.4179288148880005,-0.2612495422363281
1781548223951274,164880418,-0.8241745233535767,-0.5543920397758484,0.05712175741791725,0.10061318427324295,-0.11352129280567169,9.335923194885254,3.8992106914520264,-6.252675533294678,0.6619794964790344,-0.4143623113632202
1781548223953173,164897085,-0.8243328928947449,-0.5541545152664185,0.05719513073563576,0.10058281570672989,-0.15581941604614258,9.259354591369629,3.9112870693206787,-5.303622245788574,0.4459875524044037,-0.551441490650177
1781548223981529,164913752,-0.8241539001464844,-0.5544115900993347,0.057339441031217575,0.10055190324783325,-0.12424446642398834,9.323272705078125,3.9162471294403076,-1.1654033660888672,0.1664249151945114,-0.7417693138122559
1781548223983018,164930419,-0.8240635991096497,-0.5545323491096497,0.05751076340675354,0.10052736103534698,-0.0737743079662323,9.414384841918945,3.9169466495513916,-2.2605769634246826,0.031727734953165054,-0.5184139013290405
1781548224011581,164947086,-0.8241755366325378,-0.5543609261512756,0.057672783732414246,0.10046273469924927,-0.06963912397623062,9.426748275756836,3.945101261138916,-4.676124095916748,0.03568489849567413,-0.10379546880722046
1781548224041357,164963753,-0.8243567943572998,-0.5540872812271118,0.05784093961119652,0.1003885343670845,-0.07990086078643799,9.3873872756958,3.9494693279266357,-5.51365852355957,0.10289262235164642,0.10659366101026535
1781548224043790,164980420,-0.8245489597320557,-0.5537933707237244,0.05805185064673424,0.10031070560216904,-0.09700191020965576,9.312154769897461,3.9003524780273438,-5.638739109039307,-0.21264947950839996,0.27447211742401123
1781548224072210,164997087,-0.8246173858642578,-0.5536808967590332,0.05830974131822586,0.10021815448999405,-0.06604725867509842,9.3150634765625,3.951354503631592,-4.099542617797852,-0.4114679992198944,0.3528212904930115
1781548224073357,165013754,-0.8246740698814392,-0.5535913109779358,0.05854601413011551,0.10010882467031479,-0.043003737926483154,9.335057258605957,3.9368033409118652,-3.932471990585327,-0.26301687955856323,0.3278874158859253
1781548224101329,165030421,-0.8248047232627869,-0.5533900856971741,0.05873507261276245,0.10003499686717987,-0.05630474165081978,9.297511100769043,3.919184923171997,-4.898006439208984,0.13394802808761597,0.1697801947593689
1781548224103085,165047088,-0.8249374032020569,-0.5531880855560303,0.058876313269138336,0.0999760851264,-0.06120013818144798,9.272371292114258,3.9274754524230957,-4.946453094482422,0.17052294313907623,-0.1671741008758545
1781548224133030,165063755,-0.8249324560165405,-0.5531911253929138,0.059018563479185104,0.09991494566202164,-0.057969722896814346,9.264177322387695,3.906679391860962,-3.2577812671661377,0.18869514763355255,-0.3564903140068054
1781548224134944,165080422,-0.8248623609542847,-0.5532914400100708,0.05912958085536957,0.0998724177479744,-0.03840699791908264,9.317717552185059,3.8910269737243652,-2.4880943298339844,0.38278818130493164,-0.6464004516601562
1781548224162813,165097089,-0.8248716592788696,-0.5532795786857605,0.05917450413107872,0.09983386099338531,-0.05132207274436951,9.34985065460205,3.8920435905456543,-3.4730567932128906,0.7016279101371765,-0.818953275680542
1781548224191843,165113756,-0.8249773383140564,-0.5531398057937622,0.05916891619563103,0.09973855316638947,-0.057702600955963135,9.345365524291992,3.9218766689300537,-4.572610378265381,0.8476332426071167,-0.695346474647522
1781548224194961,165130423,-0.8250256776809692,-0.5530816912651062,0.0591718889772892,0.09965910017490387,-0.04718059301376343,9.326884269714355,3.9227042198181152,-3.893885850906372,0.9691781401634216,-0.7457265257835388
1781548224221727,165147090,-0.825015664100647,-0.5531086921691895,0.05921029672026634,0.09956993162631989,-0.034523047506809235,9.357391357421875,3.9469263553619385,-3.162912130355835,1.0249112844467163,-0.5545533895492554
1781548224223435,165163757,-0.8250173330307007,-0.5531255602836609,0.0592622235417366,0.09943162649869919,-0.03204074501991272,9.402019500732422,3.936837673187256,-3.2356905937194824,1.0402789115905762,-0.25046658515930176
1781548224251375,165180424,-0.8251328468322754,-0.552979052066803,0.05929618328809738,0.09926843643188477,-0.039305180311203,9.404867172241211,3.9687187671661377,-4.596429824829102,1.040778636932373,-0.0863916352391243
1781548224253174,165197091,-0.8253492712974548,-0.5526717901229858,0.05936405062675476,0.09913897514343262,-0.052188556641340256,9.315893173217773,3.967935800552368,-5.883660793304443,0.7802461981773376,0.03823336213827133
1781548224281458,165213758,-0.8255226612091064,-0.5524336695671082,0.05941447988152504,0.09899260848760605,-0.05466607213020325,9.25448226928711,3.977855920791626,-5.330310821533203,0.7027934193611145,-0.10086281597614288
1781548224283335,165230425,-0.8253968954086304,-0.5526237487792969,0.05956980586051941,0.09888653457164764,-0.033268868923187256,9.275472640991211,3.9661827087402344,-1.711824893951416,0.5132721066474915,-0.14916837215423584
1781548224312086,165247092,-0.8253108859062195,-0.5527583360671997,0.05968814715743065,0.09878110885620117,-0.009104270488023758,9.354239463806152,3.958409309387207,-2.202192783355713,0.5792503952980042,-0.29280439019203186
1781548224341856,165263759,-0.8254460096359253,-0.55255526304245,0.05979802832007408,0.09872037917375565,-0.02741970494389534,9.36977481842041,3.9597349166870117,-4.984628677368164,0.5053578019142151,-0.21408376097679138
1781548224343458,165280426,-0.8256440758705139,-0.5522634387016296,0.05988442152738571,0.09864579886198044,-0.0593402236700058,9.282308578491211,3.9435746669769287,-5.735388278961182,0.45645034313201904,-0.2272743135690689
1781548224372864,165297093,-0.8256774544715881,-0.5522115230560303,0.05999281629920006,0.09859152883291245,-0.050256986171007156,9.25003719329834,3.9458765983581543,-3.742784023284912,0.3711088299751282,-0.4598248302936554
1781548224373305,165313760,-0.825674295425415,-0.5522096157073975,0.060093481093645096,0.09856587648391724,-0.01864054426550865,9.288355827331543,3.9308226108551025,-3.3372321128845215,0.36402687430381775,-0.6821686029434204
1781548224401820,165330427,-0.8257144689559937,-0.5521485805511475,0.0601385273039341,0.09854349493980408,0.00832472462207079,9.335530281066895,3.9554295539855957,-3.8757400512695312,0.6491732001304626,-0.8554258346557617
1781548224402714,165347094,-0.8257596492767334,-0.5520782470703125,0.060171905905008316,0.09853968769311905,-0.001519505982287228,9.31865406036377,3.9540493488311768,-3.9628865718841553,0.6020712852478027,-1.0144293308258057
1781548224431752,165363761,-0.8258143067359924,-0.5519952178001404,0.06019878014922142,0.09853117167949677,-0.014357159845530987,9.311582565307617,3.9815762042999268,-4.074775218963623,0.7104257941246033,-0.9766761660575867
1781548224433669,165380428,-0.8258220553398132,-0.5519945025444031,0.060200948268175125,0.098467618227005,-0.01984720304608345,9.304243087768555,3.951159954071045,-3.42106294631958,0.7606396079063416,-0.9621667265892029
1781548224461941,165397095,-0.8258235454559326,-0.5520079731941223,0.06016644462943077,0.09840021282434464,-0.013801329769194126,9.3186616897583,3.954935073852539,-3.3380651473999023,0.8891128897666931,-1.1298532485961914
1781548224491321,165413762,-0.8258322477340698,-0.5519962906837463,0.06015818566083908,0.09839785099029541,-0.027055688202381134,9.325441360473633,3.9463775157928467,-3.521695613861084,0.9390449523925781,-1.195831537246704
1781548224493707,165430429,-0.8258470892906189,-0.551975429058075,0.060153257101774216,0.09839332103729248,-0.02451971545815468,9.327330589294434,3.961231231689453,-3.5926551818847656,0.9132145643234253,-1.1676958799362183
1781548224522125,165447096,-0.8258022665977478,-0.5520523190498352,0.06013413146138191,0.09835049510002136,-0.021236933767795563,9.346938133239746,3.9723708629608154,-2.8046929836273193,0.9236130714416504,-1.190529465675354
1781548224523818,165463763,-0.8258241415023804,-0.552024245262146,0.060149941593408585,0.09831453114748001,-0.02901216596364975,9.36125373840332,3.988804578781128,-3.6346092224121094,0.8892154693603516,-0.912490963935852
1781548224551727,165480430,-0.8259056210517883,-0.5519053936004639,0.060185741633176804,0.09827539324760437,-0.007382354699075222,9.341315269470215,3.985294818878174,-4.361714839935303,0.7964974045753479,-0.7223293781280518
1781548224552931,165497097,-0.8259678483009338,-0.5518237352371216,0.060201194137334824,0.09820104390382767,-0.010994239710271358,9.304205894470215,4.003248691558838,-4.07512092590332,0.852755606174469,-0.712775707244873
1781548224581276,165513764,-0.8260181546211243,-0.5517588257789612,0.06020505726337433,0.09813989698886871,-0.002976692747324705,9.277623176574707,3.954813241958618,-3.947223663330078,0.869954526424408,-0.8497011661529541
1781548224583863,165530431,-0.8259878754615784,-0.5518105626106262,0.06021035462617874,0.09810218960046768,-0.01855691708624363,9.280302047729492,3.950258493423462,-2.988604784011841,0.8265025615692139,-1.076783537864685
1781548224611522,165547098,-0.825912594795227,-0.5519206523895264,0.06023704633116722,0.09810058772563934,-0.014059311710298061,9.332680702209473,3.953474283218384,-2.487428665161133,0.7098623514175415,-1.2056281566619873
1781548224641449,165563765,-0.8259438276290894,-0.5518787503242493,0.06021873280405998,0.09808380156755447,-0.035758938640356064,9.3531494140625,3.9696576595306396,-3.777963399887085,0.9316941499710083,-1.1681312322616577
1781548224643182,165580432,-0.8261186480522156,-0.5516201257705688,0.06017947569489479,0.09809132665395737,-0.03145506978034973,9.308748245239258,3.969820261001587,-5.578920364379883,0.9467287063598633,-1.168323278427124
1781548224672542,165597099,-0.8261687159538269,-0.5515411496162415,0.06015531346201897,0.09812764078378677,-0.02593344636261463,9.24573802947998,3.965736150741577,-4.087761402130127,0.9840462803840637,-1.3666808605194092
1781548224674245,165613766,-0.8260098099708557,-0.5517802238464355,0.06014983728528023,0.09812480211257935,-0.013875025324523449,9.28978157043457,3.9692530632019043,-1.459834337234497,0.9579342603683472,-1.4266915321350098
1781548224702176,165630433,-0.8258490562438965,-0.5520231127738953,0.06014512479305267,0.0981156975030899,0.018052658066153526,9.352496147155762,3.9463775157928467,-1.4274086952209473,0.9806654453277588,-1.3904750347137451
1781548224703700,165647100,-0.8259416818618774,-0.5518849492073059,0.06006688252091408,0.0981600284576416,-0.0022185021080076694,9.345377922058105,3.9541127681732178,-4.626615047454834,1.376817226409912,-1.5067312717437744
1781548224732516,165663767,-0.8259804844856262,-0.5518300533294678,0.06000271067023277,0.09818297624588013,-0.03089343011379242,9.302899360656738,3.935913562774658,-3.9292829036712646,1.1441898345947266,-1.512570858001709
1781548224733892,165680434,-0.8259240388870239,-0.5519200563430786,0.05995488911867142,0.09817918390035629,-0.01039899606257677,9.345255851745605,3.9700446128845215,-2.7217845916748047,1.1127245426177979,-1.4639960527420044
1781548224762355,165697101,-0.8259206414222717,-0.5519406199455261,0.05990253761410713,0.09812362492084503,-0.007409778423607349,9.354061126708984,3.975255012512207,-3.299222707748413,1.2729320526123047,-1.1380362510681152
1781548224791949,165713768,-0.8260399103164673,-0.5517765879631042,0.0598030686378479,0.09810398519039154,-0.047868140041828156,9.319302558898926,3.9909725189208984,-4.861124515533447,1.4959419965744019,-1.2946709394454956
1781548224793211,165730435,-0.8260958194732666,-0.5517030358314514,0.059727735817432404,0.09809265285730362,-0.057037610560655594,9.259292602539062,3.979153633117676,-4.092076778411865,1.1100223064422607,-1.4331969022750854
1781548224821890,165747102,-0.8259533047676086,-0.5519168972969055,0.05971996858716011,0.09809596836566925,-0.0345904566347599,9.309438705444336,3.9856534004211426,-1.6660165786743164,0.6517343521118164,-1.5663319826126099
1781548224823341,165763769,-0.8258506655693054,-0.55206298828125,0.059737175703048706,0.09812645614147186,0.0015588081441819668,9.363896369934082,3.974893093109131,-2.1985557079315186,0.6525796055793762,-1.4571962356567383
1781548224851725,165780436,-0.8259190320968628,-0.5519617795944214,0.0597178190946579,0.0981317013502121,0.026189522817730904,9.359224319458008,3.9764034748077393,-4.265423774719238,0.7468599677085876,-1.2821974754333496
1781548224852752,165797103,-0.8259117603302002,-0.5519722104072571,0.05973682925105095,0.0981227234005928,0.003156411461532116,9.345314025878906,3.952672004699707,-3.3136558532714844,0.7803357243537903,-1.0895001888275146
1781548224881802,165813770,-0.8260514736175537,-0.5517779588699341,0.059701014310121536,0.09806165099143982,-0.03206713870167732,9.326285362243652,3.961493492126465,-5.04689359664917,0.8812882304191589,-0.9549438953399658
1781548224882635,165830437,-0.826128363609314,-0.5516605377197266,0.059740033000707626,0.09804965555667877,-0.04005097970366478,9.285351753234863,3.9741947650909424,-4.344516277313232,0.6266852021217346,-0.8878259062767029
1781548224911560,165847104,-0.8260440826416016,-0.551782488822937,0.05979035049676895,0.0980420708656311,-0.022679423913359642,9.292863845825195,3.9612348079681396,-2.367561101913452,0.5808255672454834,-1.1009106636047363
1781548224942061,165863771,-0.825965166091919,-0.5518913269042969,0.059840478003025055,0.09806448221206665,-0.010384583845734596,9.337060928344727,3.974090337753296,-2.4747886657714844,0.47308579087257385,-1.258710503578186
1781548224944248,165880438,-0.8259864449501038,-0.5518543124198914,0.05983656644821167,0.09809619933366776,-0.01586506888270378,9.318011283874512,3.9504058361053467,-3.723421335220337,0.7537882924079895,-1.3614816665649414
1781548224972087,165897105,-0.8260185718536377,-0.5518102645874023,0.05979496240615845,0.09809894114732742,-0.038316283375024796,9.30262279510498,3.9607551097869873,-3.8173420429229736,0.9469847083091736,-1.383021593093872
1781548224973711,165913772,-0.8260087966918945,-0.551829993724823,0.05975499749183655,0.09809526056051254,-0.018722396343946457,9.29736042022705,3.9634768962860107,-3.292038917541504,0.953977108001709,-1.4090571403503418
1781548225001459,165930439,-0.8260294795036316,-0.5517991185188293,0.05968169495463371,0.09813981503248215,-0.01982739567756653,9.307518005371094,3.9374306201934814,-3.738646984100342,1.0532773733139038,-1.7214165925979614
1781548225003719,165947106,-0.8259498476982117,-0.551915168762207,0.05964723229408264,0.0981782004237175,-0.02584170550107956,9.333840370178223,3.9428820610046387,-2.494805097579956,0.8857960104942322,-1.6783875226974487
1781548225032594,165963773,-0.8259118795394897,-0.5519759654998779,0.05960032716393471,0.09818369150161743,-0.013400550000369549,9.35871696472168,3.9596612453460693,-2.9615066051483154,1.07280695438385,-1.482911229133606
1781548225034520,165980440,-0.8259829878807068,-0.5518833994865417,0.05951467901468277,0.09815770387649536,-0.032357107847929,9.337930679321289,3.9712448120117188,-4.25795841217041,1.0665833950042725,-1.432403326034546
1781548225063090,165997107,-0.8260130286216736,-0.5518468022346497,0.05946710705757141,0.09813934564590454,-0.04611587896943092,9.324350357055664,3.980569839477539,-3.7625694274902344,1.025858998298645,-1.3070032596588135
1781548225091875,166013774,-0.8259016275405884,-0.5520161390304565,0.05949396640062332,0.09810935705900192,-0.03704381361603737,9.380603790283203,3.997760057449341,-2.0022857189178467,0.8449053764343262,-1.0902814865112305
1781548225092825,166030441,-0.8259669542312622,-0.5519294142723083,0.05951254069805145,0.09803454577922821,-0.012831549160182476,9.381360054016113,3.9884068965911865,-4.114130020141602,0.9715601801872253,-0.6388319730758667
1781548225122877,166047108,-0.8261680603027344,-0.5516369938850403,0.05953208729624748,0.09797454625368118,-0.026545964181423187,9.272796630859375,3.9725780487060547,-5.803517818450928,0.8017351627349854,-0.5534904599189758
1781548225124117,166063775,-0.8261472582817078,-0.5516659617424011,0.05957422032952309,0.09796192497015,-0.01214515883475542,9.242440223693848,3.9567618370056152,-3.140244960784912,0.5967695713043213,-1.0273383855819702
1781548225151794,166080442,-0.825933039188385,-0.5519849061965942,0.059629619121551514,0.09793714433908463,-0.014922448433935642,9.309178352355957,3.9606473445892334,-0.7454959750175476,0.7109765410423279,-1.1461042165756226
1781548225154164,166097109,-0.8259773254394531,-0.5519234538078308,0.05959194526076317,0.09793175011873245,-0.026625417172908783,9.343364715576172,3.9626827239990234,-3.9570083618164062,1.0212231874465942,-1.2769724130630493
1781548225182006,166113776,-0.8260624408721924,-0.5518034100532532,0.05954623222351074,0.09792010486125946,-0.0356067530810833,9.313096046447754,3.958975315093994,-4.446749687194824,1.0508570671081543,-1.2278857231140137
1781548225184116,166130443,-0.8260757327079773,-0.5517914891242981,0.0595095120370388,0.09789770096540451,-0.04882122576236725,9.299025535583496,3.963197946548462,-3.550381898880005,0.957140326499939,-1.2770110368728638
1781548225211557,166147110,-0.8260720372200012,-0.5517940521240234,0.05949511006474495,0.09792261570692062,-0.048147160559892654,9.329428672790527,3.9680025577545166,-3.40899920463562,0.8286157250404358,-1.4068543910980225
1781548225241949,166163777,-0.8260563611984253,-0.5518186092376709,0.059496086090803146,0.09791513532400131,-0.021964961662888527,9.332657814025879,3.9632785320281982,-3.2145347595214844,0.8001600503921509,-1.2112759351730347
1781548225243508,166180444,-0.8260877728462219,-0.5517738461494446,0.059496719390153885,0.09790152311325073,-6.505870260298252e-07,9.333925247192383,3.958130121231079,-3.784712553024292,0.815950334072113,-1.1106820106506348
1781548225273625,166197111,-0.8261293768882751,-0.5517192482948303,0.05945594981312752,0.0978839248418808,-0.0023140255361795425,9.29680061340332,3.944535970687866,-3.9055776596069336,1.0781856775283813,-1.2281031608581543
1781548225274708,166213778,-0.8261268138885498,-0.5517286658287048,0.05941913276910782,0.09787517040967941,-0.0317562110722065,9.303884506225586,3.9557294845581055,-3.3757541179656982,1.0697593688964844,-1.310166597366333
1781548225301649,166230445,-0.8261188268661499,-0.5517511367797852,0.05939396843314171,0.09783072024583817,-0.035405028611421585,9.344696044921875,3.968052625656128,-3.2563602924346924,0.99630206823349,-1.1333235502243042
1781548225303296,166247112,-0.8261333107948303,-0.551734209060669,0.05940459668636322,0.09779661893844604,-0.02960403822362423,9.363425254821777,3.987725019454956,-3.546872138977051,0.8913667798042297,-0.9613982439041138
1781548225332526,166263779,-0.8261831402778625,-0.5516666769981384,0.05942431092262268,0.09774456918239594,-0.011401176452636719,9.319461822509766,3.943861961364746,-3.95548415184021,0.8781505227088928,-0.7849652171134949
1781548225334405,166280446,-0.8262601494789124,-0.5515578985214233,0.059416916221380234,0.0977124348282814,-0.026383593678474426,9.285541534423828,3.9778060913085938,-4.319147109985352,1.0461316108703613,-0.9214938282966614
1781548225361881,166297113,-0.8261404633522034,-0.5517383813858032,0.05944869667291641,0.09768696129322052,-0.021982509642839432,9.293813705444336,3.9578142166137695,-1.9067245721817017,0.975299596786499,-1.0346633195877075
1781548225391271,166313780,-0.8260114789009094,-0.5519349575042725,0.05947840213775635,0.09764932096004486,-0.008326662704348564,9.360235214233398,3.949220657348633,-1.7764586210250854,0.9270453453063965,-1.0345354080200195
1781548225393543,166330447,-0.8261162042617798,-0.5517794489860535,0.059469833970069885,0.09764751046895981,-0.004502905532717705,9.358806610107422,3.961998224258423,-4.704054355621338,1.026294469833374,-1.0164912939071655
1781548225421552,166347114,-0.8263071775436401,-0.5515015125274658,0.05943027511239052,0.09762532263994217,-0.043467096984386444,9.301883697509766,3.959301471710205,-5.738551616668701,1.085050106048584,-0.9710288047790527
1781548225422930,166363781,-0.8263550996780396,-0.5514305233955383,0.05944559723138809,0.09761115163564682,-0.03057142347097397,9.251011848449707,3.975080728530884,-3.9870009422302246,0.9312713146209717,-0.9440199732780457
1781548225451287,166380448,-0.8262984752655029,-0.5515172481536865,0.05945293977856636,0.09759612381458282,-0.0250925961881876,9.273664474487305,3.971709728240967,-2.698246955871582,0.7895179390907288,-1.2095599174499512
1781548225453214,166397115,-0.8261205554008484,-0.551780104637146,0.059490613639354706,0.09759471565485,-0.008652102202177048,9.327061653137207,3.964188575744629,-1.2236850261688232,0.8038353323936462,-1.254573941230774
1781548225482206,166413782,-0.826044499874115,-0.5518898963928223,0.059499938040971756,0.09761136770248413,-0.017447272315621376,9.342153549194336,3.9467973709106445,-2.507495880126953,1.0800811052322388,-1.2340582609176636
1781548225484164,166430449,-0.8260880708694458,-0.5518308877944946,0.0594719797372818,0.09759322553873062,-0.016813449561595917,9.323139190673828,3.9304163455963135,-3.9293079376220703,1.0795303583145142,-1.1428769826889038
1781548225512084,166447116,-0.8261000514030457,-0.5518197417259216,0.059473637491464615,0.09755392372608185,-0.030771004036068916,9.343358039855957,3.9839870929718018,-3.510092258453369,0.9867356419563293,-0.9617441296577454
1781548225542125,166463783,-0.8261688351631165,-0.551725447177887,0.05947447568178177,0.0975043773651123,-0.05072597786784172,9.345197677612305,3.994533061981201,-4.192799091339111,0.9566535949707031,-0.8509691953659058
1781548225544457,166480450,-0.8262708187103271,-0.5515737533569336,0.05950727313756943,0.0974772721529007,-0.00947395246475935,9.268914222717285,4.01754903793335,-4.630789279937744,0.4450783133506775,-0.9016056060791016
1781548225572316,166497117,-0.826294481754303,-0.5515254735946655,0.05952426791191101,0.09754002094268799,-0.0030507396440953016,9.255077362060547,3.992372512817383,-3.7971463203430176,0.6550383567810059,-1.3928569555282593
1781548225573966,166513784,-0.8261150121688843,-0.5517852306365967,0.05961262807250023,0.09753789007663727,-0.03224525973200798,9.335721015930176,3.9800562858581543,-1.2014020681381226,0.42430639266967773,-1.0957369804382324
1781548225602037,166530451,-0.8260998129844666,-0.55179762840271,0.05968909338116646,0.09754955768585205,-0.03089080937206745,9.38719654083252,4.000561237335205,-3.2428877353668213,0.328463613986969,-1.0131230354309082
1781548225603684,166547118,-0.8262736797332764,-0.5515279173851013,0.05976145341992378,0.0975591167807579,-0.0038188323378562927,9.32020092010498,3.9679601192474365,-5.564397811889648,0.21939200162887573,-0.7864892482757568
1781548225632230,166563785,-0.8263159394264221,-0.5514507293701172,0.05983094871044159,0.09759283065795898,-0.014058000408113003,9.261144638061523,3.9642398357391357,-3.982595443725586,0.2618834376335144,-1.0830073356628418
1781548225633313,166580452,-0.8261880278587341,-0.5516265630722046,0.05992851033806801,0.09762293100357056,-0.02077559195458889,9.298640251159668,3.945397138595581,-1.8803564310073853,0.15229952335357666,-1.2014533281326294
1781548225661445,166597119,-0.826123058795929,-0.5517103672027588,0.05999676138162613,0.09765604883432388,0.008100653067231178,9.362909317016602,3.942333936691284,-2.6625683307647705,0.26580217480659485,-1.2511547803878784
1781548225691604,166613786,-0.826245903968811,-0.551521897315979,0.06001169607043266,0.09767357259988785,-0.009932761080563068,9.346258163452148,3.945058822631836,-4.950371265411377,0.5687236785888672,-1.1074036359786987
1781548225693704,166630453,-0.8264514803886414,-0.5512139797210693,0.05997112765908241,0.0976971760392189,-0.04996158927679062,9.28564453125,3.9745585918426514,-5.983293056488037,0.8155660033226013,-1.2487215995788574
1781548225722363,166647120,-0.8263943195343018,-0.5512930750846863,0.06001225858926773,0.09770975261926651,-0.04212730750441551,9.279892921447754,3.9799962043762207,-2.7288413047790527,0.5416765809059143,-1.212594985961914
1781548225723899,166663787,-0.8262176513671875,-0.5515434741973877,0.06011523678898811,0.09772688150405884,-0.010649148374795914,9.345742225646973,3.9798882007598877,-1.262488603591919,0.26502102613449097,-1.1444010734558105
1781548225752424,166680454,-0.8263104557991028,-0.5513969659805298,0.060119837522506714,0.09776494652032852,0.02175169624388218,9.345343589782715,4.015355110168457,-4.613922595977783,0.4911555051803589,-1.3317835330963135
1781548225754950,166697121,-0.8263723254203796,-0.551289975643158,0.06015108525753021,0.09782557934522629,-0.0009488026844337583,9.288043975830078,3.9612364768981934,-4.263528347015381,0.3428836166858673,-1.3641196489334106
1781548225782478,166713788,-0.8262752890586853,-0.5514189004898071,0.06021615490317345,0.0978798195719719,-0.00921293068677187,9.308403015136719,3.958726406097412,-2.2953717708587646,0.2742159962654114,-1.4027692079544067
1781548225783893,166730455,-0.8262532949447632,-0.5514382123947144,0.060269590467214584,0.09792409837245941,-0.004191917832940817,9.326058387756348,3.9762539863586426,-3.2057621479034424,0.34687915444374084,-1.2894072532653809
1781548225812738,166747122,-0.8263342380523682,-0.5513127446174622,0.06026185676455498,0.09795136004686356,-0.01627757027745247,9.325691223144531,3.978065252304077,-4.453754425048828,0.5978708863258362,-1.3383917808532715
1781548225842333,166763789,-0.8262854814529419,-0.5513679385185242,0.06034364551305771,0.09800263494253159,-0.04546564072370529,9.337852478027344,3.977259635925293,-2.886308193206787,0.2836414575576782,-1.2085864543914795
1781548225843536,166780456,-0.8262543082237244,-0.5513994693756104,0.060431722551584244,0.09803225845098495,-0.01239602081477642,9.336854934692383,3.9942147731781006,-3.072845220565796,0.22391259670257568,-1.0804461240768433
1781548225871785,166797123,-0.8262826800346375,-0.551349401473999,0.06049429625272751,0.0980374813079834,-0.0023175780661404133,9.33797836303711,3.9846417903900146,-3.769408941268921,0.4424658715724945,-0.9597079753875732
1781548225874060,166813790,-0.8262835741043091,-0.5513386726379395,0.060578249394893646,0.09803858399391174,0.0076345461420714855,9.303833961486816,3.9528558254241943,-3.4248533248901367,0.2338375300168991,-0.9385388493537903
1781548225901632,166830457,-0.8262552618980408,-0.5513845086097717,0.06062963232398033,0.09798751026391983,0.026196006685495377,9.32043170928955,3.9844167232513428,-2.9924983978271484,0.37609052658081055,-0.9186252355575562
1781548225903516,166847124,-0.8262858390808105,-0.5513429045677185,0.060675159096717834,0.0979357585310936,-0.013081184588372707,9.366087913513184,3.9785072803497314,-3.716057538986206,0.6425009965896606,-0.7518353462219238
1781548225931353,166863791,-0.8263987898826599,-0.5511640310287476,0.0607987679541111,0.09791308641433716,-0.047577448189258575,9.348472595214844,3.9825093746185303,-4.769123554229736,0.11376521736383438,-0.4741167426109314
1781548225933317,166880458,-0.8264647722244263,-0.5510534048080444,0.06100134178996086,0.09785237163305283,0.0030632365960627794,9.317928314208984,4.030884742736816,-4.134568214416504,-0.1581840068101883,-0.016097581014037132
1781548225962022,166897125,-0.8264951109886169,-0.550993800163269,0.06120328605175018,0.09780582785606384,0.007984007708728313,9.321613311767578,3.976280689239502,-3.7162492275238037,-0.18191422522068024,-0.14102354645729065
1781548225991435,166913792,-0.8264449238777161,-0.5510609745979309,0.06145314499735832,0.09769553691148758,0.008772438392043114,9.357536315917969,4.022292613983154,-2.629924774169922,-0.286426842212677,0.24285322427749634
1781548225993233,166930459,-0.8266475796699524,-0.5507360100746155,0.06165814772248268,0.09768335521221161,-0.0025928220711648464,9.34848690032959,3.9560370445251465,-5.889538764953613,-0.3448750674724579,-0.059984948486089706
1781548226021848,166947126,-0.8267812728881836,-0.550517737865448,0.06186491623520851,0.09765179455280304,0.00128508685156703,9.26695728302002,3.980865240097046,-5.012789249420166,-0.3011925220489502,-0.05971600487828255
1781548226023343,166963793,-0.8268725275993347,-0.5503594279289246,0.06203058362007141,0.09766644984483719,0.00015936061390675604,9.215707778930664,3.977555751800537,-4.557857513427734,-0.20875632762908936,-0.5279161930084229
1781548226051306,166980460,-0.8267855048179626,-0.5504639744758606,0.062224000692367554,0.09769164025783539,0.05149948596954346,9.24372386932373,3.93330454826355,-2.3749890327453613,-0.25074833631515503,-0.6912867426872253
1781548226053055,166997127,-0.8266716599464417,-0.5506259799003601,0.06228969618678093,0.097699373960495,0.050112638622522354,9.319367408752441,3.9553260803222656,-2.0249786376953125,0.3971441388130188,-1.1890056133270264
1781548226081359,167013794,-0.8267292380332947,-0.5505212545394897,0.06231529638171196,0.09778521209955215,0.012879004701972008,9.30756950378418,3.9441068172454834,-4.2506842613220215,0.5836558938026428,-1.4066752195358276
1781548226083209,167030461,-0.8267859816551208,-0.5504342913627625,0.062275197356939316,0.09782058745622635,0.010438342578709126,9.233372688293457,3.9694690704345703,-4.168569564819336,0.8419855237007141,-1.5077941417694092
1781548226112439,167047128,-0.8266456127166748,-0.5506269335746765,0.06224820390343666,0.09794050455093384,0.012448634020984173,9.220551490783691,3.9573707580566406,-1.86098051071167,0.7732154726982117,-2.099255323410034
1781548226142669,167063795,-0.826441764831543,-0.5509073138237,0.062181178480386734,0.09812770038843155,0.009201573207974434,9.272398948669434,3.9897263050079346,-1.1778384447097778,0.9356255531311035,-2.6487247943878174
1781548226144813,167080462,-0.8262601494789124,-0.5511623620986938,0.06205020472407341,0.09830586612224579,0.012792457826435566,9.34445858001709,3.9838788509368896,-1.4452093839645386,0.9611228704452515,-2.9639015197753906
1781548226171427,167097129,-0.8262091279029846,-0.5512203574180603,0.06192658096551895,0.09848763793706894,-0.002014048397541046,9.37368392944336,3.986520290374756,-3.0563507080078125,0.9083607196807861,-2.7517006397247314
1781548226173551,167113796,-0.826219379901886,-0.5511866807937622,0.061803560703992844,0.09866765886545181,0.016225935891270638,9.311013221740723,3.9916880130767822,-3.807494878768921,0.790004551410675,-2.694059371948242
1781548226201690,167130463,-0.8261622786521912,-0.5512477159500122,0.061716631054878235,0.09885828197002411,0.008572821505367756,9.27984619140625,4.000907897949219,-2.9950599670410156,0.7016535997390747,-2.653207302093506
1781548226202699,167147130,-0.8259856104850769,-0.5514844059944153,0.061675120145082474,0.09903991967439651,-0.013796999119222164,9.31290340423584,3.9935336112976074,-1.5083448886871338,0.3032095432281494,-2.685145854949951
1781548226231691,167163797,-0.8258029222488403,-0.5517213344573975,0.061681896448135376,0.0992400273680687,0.009994317777454853,9.371817588806152,3.9832704067230225,-1.4586304426193237,0.08753780275583267,-2.558823823928833
1781548226234092,167180464,-0.8256931304931641,-0.5518481135368347,0.061714787036180496,0.09942808747291565,-0.00011810033902293071,9.429049491882324,3.9922776222229004,-2.33864426612854,0.007805470377206802,-2.2667365074157715
1781548226261809,167197131,-0.8257425427436829,-0.5517399907112122,0.06178147718310356,0.09957554936408997,-0.017096271738409996,9.417383193969727,3.966156482696533,-4.236571788787842,-0.1952200084924698,-1.7292031049728394
1781548226291733,167213798,-0.8258453607559204,-0.5515479445457458,0.06191513314843178,0.09970398992300034,-0.02884427271783352,9.36733341217041,3.975266695022583,-4.861815452575684,-0.3676318824291229,-1.2245047092437744
1781548226292915,167230465,-0.8257917761802673,-0.5515900254249573,0.06214548647403717,0.09977247565984726,-0.006328532472252846,9.346881866455078,3.9853098392486572,-2.8464035987854004,-0.7225855588912964,-0.776986837387085
1781548226322036,167247132,-0.8257534503936768,-0.551619827747345,0.06237666308879852,0.09978020191192627,0.02100936695933342,9.369235038757324,3.9755356311798096,-2.9480602741241455,-0.5012149214744568,-0.4141189455986023
1781548226323235,167263799,-0.8257932066917419,-0.5515316128730774,0.06260653585195541,0.0997948870062828,-0.005209438968449831,9.34117603302002,3.9585306644439697,-3.917475938796997,-0.5530935525894165,-0.34852489829063416
1781548226351341,167280466,-0.825939953327179,-0.5512843132019043,0.06280054897069931,0.09982575476169586,-0.0030182688497006893,9.29078197479248,3.9577560424804688,-5.258134841918945,-0.5192592144012451,-0.45328086614608765
1781548226354762,167297133,-0.8259873986244202,-0.5511721968650818,0.06302756071090698,0.0999087244272232,0.007807034067809582,9.259343147277832,3.964125394821167,-4.1142578125,-0.7942498326301575,-0.7249419093132019
1781548226382665,167313800,-0.8259801864624023,-0.5511504411697388,0.06318341940641403,0.09999016672372818,0.014381589367985725,9.272563934326172,3.9349584579467773,-3.441591501235962,-0.4001215994358063,-1.086388349533081
1781548226384680,167330467,-0.8260003924369812,-0.5510942935943604,0.06326961517333984,0.10007689148187637,0.03199828788638115,9.290999412536621,3.9223129749298096,-3.791935443878174,0.11902864277362823,-1.2817493677139282
1781548226412014,167347134,-0.8259493112564087,-0.5511556267738342,0.06327909231185913,0.10015516728162766,0.007856756448745728,9.259471893310547,3.910970687866211,-2.903135299682617,0.4699609875679016,-1.6922436952590942
1781548226441348,167363801,-0.8258584141731262,-0.551283597946167,0.06324129551649094,0.10022386163473129,0.002850828692317009,9.302071571350098,3.9145233631134033,-2.4033169746398926,0.7978549003601074,-1.876271367073059
1781548226442794,167380468,-0.8257179856300354,-0.5514881014823914,0.06316396594047546,0.10030507296323776,0.014013487845659256,9.293569564819336,3.8961524963378906,-1.8123674392700195,1.024706482887268,-2.157280921936035
1781548226471483,167397135,-0.8255994319915771,-0.5516672730445862,0.06302671879529953,0.1003827378153801,0.0036582702305167913,9.336851119995117,3.9148025512695312,-2.0803020000457764,1.353804111480713,-2.3452398777008057
1781548226473711,167413802,-0.8255932927131653,-0.5516866445541382,0.06283724308013916,0.10044437646865845,-0.010495025664567947,9.324204444885254,3.961239814758301,-3.4416298866271973,1.5346683263778687,-2.352872610092163
1781548226502015,167430469,-0.8256115913391113,-0.5516714453697205,0.06264010071754456,0.10050106793642044,-0.009046053513884544,9.308587074279785,3.970208168029785,-3.7346138954162598,1.6033872365951538,-2.31417179107666
1781548226503930,167447136,-0.8254790902137756,-0.5518746376037598,0.06252195686101913,0.10054770112037659,-0.025612633675336838,9.321096420288086,3.9771132469177246,-1.8634908199310303,1.3185739517211914,-2.139185667037964
1781548226531165,167463803,-0.8253505229949951,-0.55205899477005,0.06248009577393532,0.10061786323785782,-0.01828848570585251,9.382952690124512,4.020541667938232,-1.9423516988754272,0.9173123240470886,-1.916969656944275
1781548226533078,167480470,-0.8253592848777771,-0.5520316958427429,0.06245219334959984,0.1007121354341507,0.00963283609598875,9.392827033996582,4.010712623596191,-3.665766477584839,0.7100799679756165,-1.7947458028793335
1781548226562530,167497137,-0.8254702091217041,-0.5518553256988525,0.06242426484823227,0.10078709572553635,-0.016516156494617462,9.357549667358398,3.9847700595855713,-4.891782760620117,0.5945156216621399,-1.6035727262496948
1781548226594092,167513804,-0.8255640864372253,-0.551698625087738,0.06246655806899071,0.10084930062294006,-0.021351411938667297,9.31820011138916,3.9885172843933105,-4.660358905792236,0.17250794172286987,-1.3163520097732544
1781548226594587,167530471,-0.8256432414054871,-0.5515525937080383,0.06255415827035904,0.1009460836648941,-0.03387155011296272,9.326213836669922,4.01188325881958,-4.528017997741699,-0.20177686214447021,-1.3510187864303589
1781548226622728,167547138,-0.8257265686988831,-0.5513965487480164,0.06268008798360825,0.1010381206870079,-0.030009297654032707,9.322125434875488,3.996342897415161,-4.570138454437256,-0.607443630695343,-1.2546894550323486
1781548226651508,167563805,-0.8258314728736877,-0.5511804223060608,0.06289713084697723,0.10122557729482651,-0.04544219374656677,9.382246971130371,3.977684736251831,-4.972988128662109,-1.204053282737732,-1.2803021669387817
1781548226652910,167580472,-0.8261433839797974,-0.5506699681282043,0.06308740377426147,0.1013401448726654,-0.016382597386837006,9.37573528289795,4.022042751312256,-7.411304950714111,-1.5717236995697021,-0.9775855541229248
1781548226654099,167597139,-0.8264021277427673,-0.550216019153595,0.06339500099420547,0.10150409489870071,0.05156043544411659,9.389196395874023,4.003396511077881,-6.832380771636963,-1.7380653619766235,-0.598658561706543
1781548226682550,167613806,-0.8268426656723022,-0.549508273601532,0.06361234188079834,0.10161437094211578,0.07749935239553452,9.350041389465332,4.069150924682617,-9.002482414245605,-0.9777266383171082,-0.3378572165966034
1781548226683766,167630473,-0.8273857831954956,-0.548671305179596,0.06365792453289032,0.101687490940094,0.03446437418460846,9.127223014831543,3.961407423019409,-10.227065086364746,-0.18959809839725494,-0.7654871344566345
1781548226712553,167647140,-0.8272771239280701,-0.5488166213035583,0.06371285766363144,0.10175248980522156,-0.014320223592221737,9.114614486694336,3.949383020401001,-2.170727491378784,0.12412552535533905,-1.5971182584762573
1781548226742839,167663807,-0.8264990448951721,-0.5499626994132996,0.06388520449399948,0.10177956521511078,0.0413883812725544,9.302508354187012,3.9144599437713623,6.145800590515137,0.14211848378181458,-1.788214921951294
1781548226744123,167680474,-0.8263105750083923,-0.5502250790596008,0.06381545215845108,0.10193648189306259,-0.041779160499572754,9.390202522277832,3.987459897994995,-1.332603096961975,0.9170305728912354,-2.536797046661377
1781548226772492,167697141,-0.8258792161941528,-0.550853967666626,0.0638834536075592,0.10199260711669922,-0.1124003529548645,9.416685104370117,3.9757940769195557,1.810875654220581,0.289826899766922,-1.9304804801940918
1781548226773923,167713808,-0.8255946636199951,-0.5512686371803284,0.0640370175242424,0.10195901989936829,-0.013519239611923695,9.470263481140137,4.006897926330566,0.13647086918354034,0.22235023975372314,-0.8314522504806519
1781548226801368,167730475,-0.8260889649391174,-0.5505327582359314,0.06404396891593933,0.10192753374576569,0.06418261677026749,9.420869827270508,4.024840831756592,-9.449603080749512,0.5307016372680664,-0.36799055337905884
1781548226803313,167747142,-0.8267308473587036,-0.5495612025260925,0.064007468521595,0.10198939591646194,0.050389841198921204,9.304268836975098,4.1042585372924805,-11.419145584106445,0.19783896207809448,-0.9071893692016602
1781548226832480,167763809,-0.8274661898612976,-0.5484192967414856,0.0639292299747467,0.10222022980451584,-0.010444993153214455,9.242698669433594,4.232935905456543,-12.843509674072266,-0.08434268087148666,-1.8037883043289185
1781548226833580,167780476,-0.8280481100082397,-0.5474749207496643,0.06390661001205444,0.10258512943983078,-0.015279353596270084,9.180501937866211,4.219731330871582,-11.16163444519043,-0.7198707461357117,-2.502732992172241
1781548226862510,167797143,-0.8280295729637146,-0.5474348664283752,0.06391319632530212,0.10294314473867416,0.026627758517861366,9.214834213256836,4.190648555755615,-3.728440761566162,-0.6024875044822693,-3.223832130432129
1781548226891889,167813810,-0.82763671875,-0.5479529500007629,0.06389039009809494,0.10335980355739594,-0.06071346253156662,9.311030387878418,4.110463619232178,0.8117496967315674,-0.44505906105041504,-4.186830997467041
1781548226893456,167830477,-0.8270602226257324,-0.548737108707428,0.06398873776197433,0.10375265777111053,-0.15261556208133698,9.384757995605469,4.027956008911133,3.1138193607330322,-0.9097631573677063,-3.830392360687256
1781548226922124,167847144,-0.8268238306045532,-0.5489895343780518,0.06405516713857651,0.10425989329814911,-0.13290494680404663,9.429755210876465,4.271816730499268,-1.2652034759521484,-1.507563591003418,-4.174371242523193
1781548226923886,167863811,-0.8271583318710327,-0.5483483076095581,0.06406070291996002,0.10497413575649261,-0.09062858670949936,9.2954683303833,4.345925807952881,-8.63588809967041,-2.2004902362823486,-4.723572731018066
1781548226951352,167880478,-0.8268429636955261,-0.5486113429069519,0.0643131211400032,0.10592632740736008,-0.01952897571027279,8.934550285339355,4.229740619659424,-0.968595564365387,-4.154354572296143,-6.0207390785217285
1781548226954694,167897145,-0.8253545761108398,-0.5505870580673218,0.06493586301803589,0.10689832270145416,0.25512322783470154,8.717352867126465,4.255484580993652,13.45617389678955,-5.962193012237549,-6.496666431427002
1781548226982549,167913812,-0.8229184150695801,-0.5539742112159729,0.06479069590568542,0.10825978219509125,0.401915967464447,8.943048477172852,4.263681888580322,24.31069564819336,-2.056500196456909,-12.771409034729004
1781548226983346,167930479,-0.8199119567871094,-0.5584689378738403,0.06440559029579163,0.10820803791284561,0.13773854076862335,9.012920379638672,4.052623748779297,33.201759338378906,5.232048988342285,-6.617733478546143
1781548227011953,167947146,-0.8161247968673706,-0.56396484375,0.06333500146865845,0.10896226018667221,-0.2503240406513214,9.84013557434082,4.198971748352051,40.978145599365234,6.343674659729004,-14.842313766479492
1781548227042128,167963813,-0.8126654624938965,-0.5688024759292603,0.06258804351091385,0.11009717732667923,-0.1608162820339203,10.33839225769043,4.347294330596924,36.08838653564453,2.703556776046753,-15.188397407531738
1781548227043635,167980480,-0.8109052181243896,-0.5711287260055542,0.06119154021143913,0.11180571466684341,0.3126290440559387,9.930855751037598,4.520436763763428,14.673819541931152,2.932166814804077,-18.564376831054688
1781548227071672,167997147,-0.80832439661026,-0.5746490359306335,0.0589480884373188,0.11364568024873734,0.08522550016641617,9.336198806762695,4.57769775390625,23.84745979309082,7.701610565185547,-23.757925033569336
1781548227073296,168013814,-0.8036609292030334,-0.5810088515281677,0.05613415315747261,0.11578799039125443,-0.5908905863761902,9.578142166137695,4.541164398193359,47.29048156738281,11.056431770324707,-30.46947479248047
1781548227101422,168030481,-0.7974661588668823,-0.5893306732177734,0.05282250791788101,0.11809702217578888,-0.5771678686141968,10.700066566467285,4.5173749923706055,63.78799819946289,14.10821533203125,-35.35686492919922
1781548227102834,168047148,-0.7952443361282349,-0.5923236012458801,0.047918789088726044,0.12017910182476044,-0.7980058789253235,11.180062294006348,4.719440460205078,17.262470245361328,20.87625503540039,-35.40059280395508
1781548227132507,168063815,-0.7956337928771973,-0.5919421911239624,0.04065100476145744,0.12214284390211105,-0.9639526605606079,11.131073951721191,5.29292631149292,-13.734004974365234,32.3514518737793,-41.11450958251953
1781548227133735,168080482,-0.79705411195755,-0.5901920795440674,0.031651820987463,0.12400197982788086,-1.2454115152359009,10.807695388793945,5.78629732131958,-26.84073829650879,41.389068603515625,-46.3382568359375
1781548227161671,168097149,-0.8004922270774841,-0.5858032703399658,0.02133459411561489,0.12486693263053894,-2.2369682788848877,9.88578987121582,5.512170314788818,-50.39494705200195,50.83713912963867,-43.94245910644531
1781548227191939,168113816,-0.8012624382972717,-0.5849878787994385,0.010527855716645718,0.1251285970211029,-3.317605495452881,9.86563777923584,5.894863605499268,-20.311805725097656,58.636566162109375,-45.408592224121094
1781548227193385,168130483,-0.8007209300994873,-0.5857971906661987,-0.0010082824155688286,0.1252467781305313,-3.4984805583953857,10.217363357543945,5.7098917961120605,-6.700001239776611,64.53250885009766,-48.79595947265625
1781548227221499,168147150,-0.8016954660415649,-0.5844943523406982,-0.013778413645923138,0.12434250861406326,-3.363055467605591,10.327547073364258,5.713774681091309,-25.501911163330078,73.61943054199219,-46.84280776977539
1781548227223536,168163817,-0.8029530048370361,-0.5827086567878723,-0.027280116453766823,0.12236519157886505,-3.6096231937408447,9.780996322631836,5.307966232299805,-30.026891708374023,81.52348327636719,-43.668888092041016
1781548227251192,168180484,-0.8037713170051575,-0.5813606381416321,-0.04097568988800049,0.1195528656244278,-4.272098541259766,9.480374336242676,5.132503509521484,-26.167869567871094,86.39127349853516,-40.12091827392578
1781548227252966,168197151,-0.8044175505638123,-0.5800809860229492,-0.05422559380531311,0.11609665304422379,-4.568000316619873,9.371587753295898,4.8316731452941895,-24.916521072387695,86.6044921875,-34.899925231933594
1781548227282165,168213818,-0.8045933246612549,-0.5793436765670776,-0.06685912609100342,0.11189553886651993,-4.613510608673096,9.385112762451172,4.426764011383057,-19.824827194213867,86.77655792236328,-28.49143409729004
1781548227283789,168230485,-0.8056309223175049,-0.5774171352386475,-0.07871898263692856,0.10654330998659134,-4.644203186035156,9.450786590576172,4.0573201179504395,-29.769744873046875,85.77102661132812,-18.921260833740234
1781548227312769,168247152,-0.8079360723495483,-0.5739317536354065,-0.08909419924020767,0.09951835870742798,-4.8470683097839355,9.263845443725586,3.5830376148223877,-43.254215240478516,82.35637664794922,-3.674689292907715
1781548227342677,168263819,-0.8111678957939148,-0.5694152116775513,-0.09764845669269562,0.09076281636953354,-4.799255847930908,8.862937927246094,3.3256189823150635,-52.45287322998047,77.7992935180664,13.131012916564941
1781548227344220,168280486,-0.8142858147621155,-0.56528240442276,-0.10434925556182861,0.08065854012966156,-4.375363349914551,8.405688285827637,3.1429696083068848,-49.61674499511719,73.05524444580078,28.099346160888672
1781548227371913,168297153,-0.8163645267486572,-0.5628445744514465,-0.10905782878398895,0.06972391903400421,-3.934511184692383,8.249021530151367,2.930896282196045,-35.579402923583984,66.81353759765625,41.13349151611328
1781548227373970,168313820,-0.817709743976593,-0.5616054534912109,-0.11208376288414001,0.058203257620334625,-3.480853319168091,8.338990211486816,2.5313637256622314,-25.644437789916992,60.76298141479492,51.48506546020508
1781548227401878,168330487,-0.8188720941543579,-0.5607110857963562,-0.11362183839082718,0.0462784580886364,-2.9937078952789307,8.469208717346191,2.1895592212677,-22.717247009277344,54.23204040527344,59.695274353027344
1781548227403802,168347154,-0.820050835609436,-0.5597802996635437,-0.11402639001607895,0.03406913951039314,-2.4960460662841797,8.544340133666992,1.9230461120605469,-22.84747886657715,48.92058181762695,65.64494323730469
1781548227432560,168363821,-0.8215077519416809,-0.5584079027175903,-0.11326036602258682,0.021865101531147957,-2.146436929702759,8.792291641235352,1.4247496128082275,-26.13138771057129,41.97535705566406,69.84019470214844
1781548227434587,168380488,-0.8245992064476013,-0.5545669198036194,-0.11131732910871506,0.010014748200774193,-1.6400837898254395,9.136067390441895,1.5662583112716675,-45.89982604980469,32.326171875,70.68511962890625
1781548227462872,168397155,-0.829675018787384,-0.5476773977279663,-0.10810047388076782,-0.0018312694737687707,-1.3254927396774292,9.141643524169922,1.5417732000350952,-70.66072082519531,23.359560012817383,73.3224105834961
1781548227491545,168413822,-0.8356750011444092,-0.5392652153968811,-0.10315064340829849,-0.014166224747896194,-1.3515623807907104,8.914835929870605,1.7606614828109741,-83.21377563476562,14.642807006835938,81.4942626953125
1781548227493929,168430489,-0.842188835144043,-0.529807984828949,-0.0965544581413269,-0.026429807767271996,-1.1307873725891113,8.32828140258789,2.2173566818237305,-91.2374267578125,4.650417327880859,86.39517211914062
1781548227522273,168447156,-0.8487247824668884,-0.5199509859085083,-0.08855220675468445,-0.03841739520430565,-0.6476725935935974,7.341708183288574,2.2711377143859863,-93.70613861083984,-4.436600208282471,89.6518783569336
1781548227523792,168463823,-0.8532338738441467,-0.512563943862915,-0.08153572678565979,-0.05120851472020149,0.17458735406398773,6.797776222229004,2.626918077468872,-71.24948120117188,-4.907577037811279,87.93917083740234
1781548227551372,168480490,-0.8548750281333923,-0.5095025897026062,-0.07505794614553452,-0.06294663995504379,0.514286458492279,7.282684803009033,2.553351640701294,-35.765193939208984,1.2291849851608276,86.59644317626953
1781548227553679,168497157,-0.8553096055984497,-0.5082516074180603,-0.06806565821170807,-0.07411536574363708,0.38768836855888367,8.428786277770996,3.0141372680664062,-21.238418579101562,2.1453776359558105,89.73734283447266
1781548227582159,168513824,-0.8585735559463501,-0.501835823059082,-0.060356251895427704,-0.08584550768136978,0.8927469849586487,8.493391036987305,3.3194668292999268,-61.96500015258789,-1.8304888010025024,90.06986999511719
1781548227583864,168530491,-0.8637654185295105,-0.49178606271743774,-0.05162035673856735,-0.0969075933098793,1.3439521789550781,7.327840328216553,3.9335620403289795,-90.40023803710938,-8.84970760345459,87.02191162109375
1781548227612799,168547158,-0.8665493726730347,-0.4854810833930969,-0.043402399867773056,-0.10731534659862518,1.832067847251892,6.587397575378418,3.6912708282470703,-59.44013214111328,-9.627152442932129,84.31541442871094
1781548227641719,168563825,-0.866765022277832,-0.48328307271003723,-0.03624754399061203,-0.11765214800834656,1.6041761636734009,7.342588424682617,4.330941200256348,-25.5921630859375,-5.794363975524902,83.46221160888672
1781548227643366,168580492,-0.8683074116706848,-0.4785344898700714,-0.028538646176457405,-0.12740735709667206,2.0460824966430664,8.130558967590332,4.791928291320801,-45.50421905517578,-9.294567108154297,80.1285171508789
1781548227672747,168597159,-0.8710548877716064,-0.4712844789028168,-0.02049528807401657,-0.1368734985589981,2.6940901279449463,8.0201997756958,4.931739807128906,-64.64012908935547,-10.287498474121094,77.95512390136719
1781548227674279,168613826,-0.8744809627532959,-0.46237894892692566,-0.012317117303609848,-0.1460731476545334,2.468031406402588,7.670679569244385,5.366090774536133,-76.84434509277344,-10.4970703125,75.9229965209961
1781548227701259,168630493,-0.8777087926864624,-0.45350852608680725,-0.003429711563512683,-0.1547437161207199,2.237492799758911,7.159224033355713,5.162723064422607,-76.6706771850586,-16.461811065673828,75.19717407226562
1781548227704192,168647160,-0.8810478448867798,-0.44419941306114197,0.00502094067633152,-0.16253194212913513,2.6103203296661377,6.9972734451293945,5.444613456726074,-79.17879486083984,-16.112611770629883,68.38165283203125
1781548227731946,168663827,-0.8849831819534302,-0.43366411328315735,0.012760625220835209,-0.16904808580875397,3.25895094871521,6.808151721954346,5.841619968414307,-87.67671203613281,-14.30040454864502,57.878395080566406
1781548227733056,168680494,-0.8890933990478516,-0.4228633940219879,0.019523389637470245,-0.1741221398115158,3.40036940574646,6.250302791595459,5.95611047744751,-88.80396270751953,-12.330342292785645,46.0089111328125
1781548227762309,168697161,-0.8914355039596558,-0.41570019721984863,0.0257126372307539,-0.17853596806526184,3.2575483322143555,6.348830699920654,6.399363040924072,-60.82783508300781,-15.33639907836914,41.930728912353516
1781548227791842,168713828,-0.8920907378196716,-0.41179725527763367,0.03156012296676636,-0.18330663442611694,3.317150115966797,7.228146553039551,6.579251289367676,-35.54206085205078,-16.519962310791016,44.6345100402832
1781548227794122,168730495,-0.8947649598121643,-0.4030645489692688,0.03839057683944702,-0.188310444355011,3.8789937496185303,7.523608684539795,6.941640853881836,-72.07034301757812,-15.364041328430176,47.35160827636719
1781548227821629,168747162,-0.898273229598999,-0.3921366333961487,0.04527648538351059,-0.1930907964706421,4.078835487365723,7.178308963775635,7.343833923339844,-88.01841735839844,-13.26106071472168,45.627906799316406
1781548227823213,168763829,-0.9012433886528015,-0.38238221406936646,0.051497913897037506,-0.19721129536628723,3.8851611614227295,6.665472984313965,7.842499732971191,-78.64210510253906,-12.660441398620605,40.110107421875
1781548227851329,168780496,-0.9042102098464966,-0.3722902834415436,0.058234803378582,-0.20102918148040771,3.891336441040039,5.564862251281738,7.587188243865967,-81.52981567382812,-16.19502067565918,39.711158752441406
1781548227853331,168797163,-0.905271053314209,-0.3663701117038727,0.06324173510074615,-0.20556741952896118,4.235358238220215,5.268692493438721,7.760987281799316,-48.03482437133789,-10.122950553894043,40.72469711303711
1781548227882252,168813830,-0.9040337204933167,-0.36631330847740173,0.06582672148942947,-0.2102486491203308,4.222536087036133,6.132638454437256,7.602904796600342,-2.2645957469940186,-3.9747893810272217,36.21052551269531
1781548227883466,168830497,-0.9029958844184875,-0.36633867025375366,0.06790079921483994,-0.21397200226783752,4.1671142578125,7.339401721954346,7.920632839202881,-1.950579047203064,-3.2389912605285645,28.644088745117188
1781548227912134,168847164,-0.9037730097770691,-0.3621654808521271,0.0710681825876236,-0.2167486846446991,4.027376651763916,7.499899864196777,8.194807052612305,-34.639644622802734,-5.386680603027344,24.810638427734375
1781548227942966,168863831,-0.9062958359718323,-0.3538873791694641,0.07531744986772537,-0.21844696998596191,3.8215041160583496,6.232670783996582,8.113568305969238,-66.63428497314453,-7.82395601272583,20.208160400390625
1781548227944575,168880498,-0.9081355333328247,-0.34772026538848877,0.07840194553136826,-0.21962177753448486,3.826352834701538,5.009800434112549,7.634523868560791,-50.33848190307617,-5.363760948181152,14.043149948120117
1781548227971764,168897165,-0.9075344800949097,-0.3480205237865448,0.07916246354579926,-0.2213512361049652,3.801997423171997,5.224832057952881,7.359827041625977,-0.31325626373291016,-0.6076359748840332,12.150588035583496
1781548227973781,168913832,-0.9062913060188293,-0.34981730580329895,0.0795193463563919,-0.22347413003444672,3.5029478073120117,6.523767471313477,7.856851100921631,11.388643264770508,0.2253984659910202,13.800209999084473
1781548228001234,168930499,-0.9067704677581787,-0.3470623195171356,0.08153310418128967,-0.2250945270061493,3.2522146701812744,7.049535274505615,8.166055679321289,-23.936323165893555,-3.3709604740142822,14.496450424194336
1781548228002936,168947166,-0.9090690016746521,-0.3397146165370941,0.08498989045619965,-0.22575324773788452,3.538604497909546,6.198728084564209,8.084258079528809,-59.683868408203125,-6.534961223602295,11.703422546386719
1781548228031781,168963833,-0.9108003377914429,-0.33403778076171875,0.08726666122674942,-0.22637639939785004,3.6577446460723877,5.275768280029297,7.874762535095215,-46.10515213012695,-2.1682982444763184,8.62687873840332
1781548228033226,168980500,-0.9112839102745056,-0.33179864287376404,0.0889580175280571,-0.22706392407417297,3.389539957046509,5.036993026733398,7.90279483795166,-20.76144790649414,-4.452186584472656,7.5668182373046875
1781548228061911,168997167,-0.9113995432853699,-0.33069804310798645,0.09054981172084808,-0.2275756299495697,3.3476572036743164,4.774771690368652,7.760896682739258,-12.740049362182617,-6.2317423820495605,6.117067337036133
1781548228092755,169013834,-0.9108794331550598,-0.3318566679954529,0.09146572649478912,-0.22760522365570068,3.4326484203338623,5.023476600646973,7.506906032562256,3.620119094848633,-7.023720741271973,1.1459699869155884
1781548228094697,169030501,-0.9094148278236389,-0.3361738920211792,0.09075084328651428,-0.22741194069385529,3.6303539276123047,5.794689655303955,7.699508190155029,27.96843719482422,-2.8557088375091553,-4.478892803192139
1781548228123357,169047168,-0.908825159072876,-0.3383740782737732,0.09043485671281815,-0.22663052380084991,3.5104339122772217,6.140986919403076,7.6481709480285645,11.718234062194824,-2.8525140285491943,-7.2820916175842285
1781548228125019,169063835,-0.9090887308120728,-0.3381114602088928,0.09099476039409637,-0.22573944926261902,3.2522332668304443,5.762216567993164,7.717555999755859,-7.08803653717041,-4.212612152099609,-5.727732181549072
1781548228152415,169080502,-0.9085473418235779,-0.33946505188941956,0.09135669469833374,-0.22574132680892944,3.15700101852417,5.821715831756592,7.80728006362915,5.7502899169921875,-3.9113035202026367,-0.36965543031692505
1781548228155150,169097169,-0.9075207114219666,-0.3415900766849518,0.09132014960050583,-0.22667814791202545,3.342427968978882,6.360873699188232,7.918870449066162,12.907675743103027,-0.7434731125831604,4.808320045471191
1781548228182361,169113836,-0.9074082374572754,-0.34094828367233276,0.09213189035654068,-0.22776421904563904,3.2908666133880615,6.5001349449157715,8.050531387329102,-7.7314276695251465,-0.7978103160858154,8.047154426574707
1781548228184545,169130503,-0.908591628074646,-0.3368860185146332,0.0941438153386116,-0.22826777398586273,3.2296857833862305,5.724525451660156,7.856593608856201,-34.357513427734375,-3.4751460552215576,7.362664699554443
1781548228211718,169147170,-0.9092143177986145,-0.3345739543437958,0.09566068649291992,-0.2285577356815338,3.391176223754883,5.007354736328125,7.820680141448975,-21.486902236938477,-3.9874558448791504,4.628344535827637
1781548228241508,169163837,-0.90876305103302,-0.3357846736907959,0.09550697356462479,-0.22864142060279846,3.4148943424224854,5.209271430969238,7.910168170928955,5.494801998138428,-0.26096782088279724,-1.1336438655853271
1781548228243483,169180504,-0.907663881778717,-0.33924734592437744,0.09431656450033188,-0.22838999330997467,3.477627992630005,5.983534812927246,8.069496154785156,22.472064971923828,1.4777722358703613,-6.080325603485107
1781548228302251,169197171,-0.9071893095970154,-0.3413184881210327,0.0933767706155777,-0.22757458686828613,3.4282748699188232,6.468739032745361,8.156349182128906,11.57247257232666,1.1880650520324707,-9.09512710571289
1781548228302705,169213838,-0.9077374935150146,-0.34076666831970215,0.09320927411317825,-0.22628071904182434,3.4846880435943604,6.234933376312256,8.099699974060059,-8.703789710998535,0.009495913982391357,-10.181873321533203
1781548228304168,169230505,-0.9083368182182312,-0.3400793671607971,0.0930541381239891,-0.22496964037418365,3.4888131618499756,5.775857448577881,7.7548346519470215,-9.699945449829102,0.13572818040847778,-10.25379467010498
1781548228331292,169247172,-0.9085062146186829,-0.3403036594390869,0.09253501892089844,-0.2241590917110443,3.4399631023406982,5.89223575592041,7.680644989013672,-2.117722272872925,1.8927594423294067,-7.897176742553711
1781548228333472,169263839,-0.9085236191749573,-0.34039151668548584,0.09231652319431305,-0.22404547035694122,3.386575937271118,6.209920406341553,7.766427040100098,-2.634701728820801,1.759906530380249,-2.519829034805298
1781548228334796,169280506,-0.9090397953987122,-0.33876833319664,0.09314705431461334,-0.224068284034729,3.322596788406372,6.155778884887695,7.775940895080566,-16.01924705505371,-1.5204867124557495,1.1056307554244995
1781548228361906,169297173,-0.9098024964332581,-0.3363015055656433,0.09437857568264008,-0.22417281568050385,3.3714611530303955,5.699345588684082,7.854639530181885,-22.432767868041992,-2.3796544075012207,2.7105391025543213
1781548228392027,169313840,-0.9101648926734924,-0.33496707677841187,0.09538090974092484,-0.22427590191364288,3.283891439437866,5.465709209442139,7.887382984161377,-14.07126522064209,-2.9542603492736816,2.053877115249634
1781548228393944,169330507,-0.9097056984901428,-0.33614516258239746,0.09532005339860916,-0.22440217435359955,3.4040911197662354,5.761991024017334,7.848417282104492,5.199859142303467,-0.6602187156677246,-0.6303671002388
1781548228421469,169347174,-0.909503161907196,-0.33687087893486023,0.09491489082574844,-0.22430668771266937,3.5940635204315186,6.197906017303467,8.079313278198242,2.1617186069488525,1.845542550086975,-2.9140212535858154
1781548228423538,169363841,-0.9099793434143066,-0.33576518297195435,0.09494814276695251,-0.2240184247493744,3.5922420024871826,5.989589691162109,7.943020820617676,-11.663492202758789,1.926440954208374,-2.9540295600891113
1781548228451371,169380508,-0.9105777144432068,-0.3344269394874573,0.094941146671772,-0.2235916405916214,3.6066017150878906,5.717040061950684,7.921845436096191,-13.428631782531738,2.2964937686920166,-3.9503262042999268
1781548228453665,169397175,-0.9106573462486267,-0.33448052406311035,0.09477999806404114,-0.22325560450553894,3.6346817016601562,5.708110332489014,7.990755081176758,-3.2262909412384033,0.9922294616699219,-3.8485000133514404
1781548228482193,169413842,-0.910879373550415,-0.3342108428478241,0.0946526750922203,-0.22280625998973846,3.781496047973633,5.777383804321289,7.864804267883301,-5.70316743850708,1.1090747117996216,-4.487460613250732
1781548228484501,169430509,-0.9110507965087891,-0.33434075117111206,0.09394895285367966,-0.22220869362354279,3.912353754043579,6.035073757171631,8.12302017211914,-2.297088146209717,3.733928680419922,-6.923139572143555
1781548228512365,169447176,-0.911691427230835,-0.33364567160606384,0.09315571188926697,-0.22095546126365662,4.035746097564697,6.152777671813965,8.122448921203613,-8.831175804138184,4.351556301116943,-11.420391082763672
1781548228542697,169463843,-0.9126507639884949,-0.33229249715805054,0.09232169389724731,-0.2193784862756729,4.170665740966797,5.952017307281494,8.307884216308594,-13.832784652709961,5.0688557624816895,-13.60696792602539
1781548228544060,169480510,-0.9135069847106934,-0.3313279449939728,0.09125451743602753,-0.2177143543958664,4.228941917419434,5.760111331939697,8.271163940429688,-10.861733436584473,5.681371688842773,-14.777843475341797
1781548228573132,169497177,-0.9137763381004333,-0.33198052644729614,0.08970741927623749,-0.21622803807258606,4.208539009094238,5.966978073120117,8.567886352539062,1.4612377882003784,6.313644886016846,-14.889725685119629
1781548228574734,169513844,-0.9142681360244751,-0.3321262300014496,0.08814084529876709,-0.21456295251846313,4.282960891723633,6.048390865325928,8.775517463684082,-2.3116891384124756,6.917939186096191,-16.077632904052734
1781548228601263,169530511,-0.9151567816734314,-0.3313972055912018,0.08630594611167908,-0.21263909339904785,4.376466274261475,6.086044788360596,9.063467025756836,-8.477537155151367,9.546170234680176,-18.37199592590332
1781548228603374,169547178,-0.9159215092658997,-0.33131176233291626,0.08368749171495438,-0.2105156034231186,4.391795635223389,6.0470709800720215,9.101592063903809,-3.118647575378418,13.007994651794434,-21.614593505859375
1781548228631857,169563845,-0.9165894985198975,-0.331519216299057,0.08042703568935394,-0.2085433453321457,4.48563289642334,5.924208164215088,9.055363655090332,-0.036370135843753815,16.917102813720703,-22.15273094177246
1781548228633540,169580512,-0.9168185591697693,-0.333031564950943,0.07608266919851303,-0.20674936473369598,4.402205467224121,6.013275146484375,9.109403610229492,10.841073989868164,22.040782928466797,-23.593719482421875
1781548228661535,169597179,-0.9170854091644287,-0.3346138894557953,0.07123439759016037,-0.2047279179096222,4.298161506652832,6.179172992706299,9.268336296081543,11.79391860961914,24.618579864501953,-26.27139663696289
1781548228692244,169613846,-0.9175301194190979,-0.33586910367012024,0.06601906567811966,-0.20241543650627136,4.266063213348389,6.113345146179199,9.071207046508789,9.696403503417969,26.812089920043945,-29.041885375976562
1781548228693318,169630513,-0.9179535508155823,-0.3375258147716522,0.05996965989470482,-0.19960324466228485,4.236903667449951,5.983033180236816,8.962909698486328,13.213332176208496,30.35194969177246,-34.2735595703125
1781548228723838,169647180,-0.9181250929832458,-0.3401853144168854,0.05300050601363182,-0.19624269008636475,4.163432598114014,6.064476013183594,8.758491516113281,21.163375854492188,33.405975341796875,-39.93745422363281
1781548228726192,169663847,-0.9182493686676025,-0.3431602716445923,0.04538014531135559,-0.19235330820083618,3.999945640563965,6.197681903839111,8.493229866027832,23.95265007019043,35.83845520019531,-44.85142135620117
1781548228751461,169680514,-0.9182959794998169,-0.34648552536964417,0.03705838695168495,-0.1879023164510727,3.9244861602783203,6.217240810394287,8.24361515045166,27.099695205688477,38.45695114135742,-50.05867004394531
1781548228753899,169697181,-0.918718695640564,-0.3491583466529846,0.02832886204123497,-0.1823243349790573,3.6755049228668213,5.98198127746582,7.991244792938232,22.325157165527344,39.286678314208984,-58.4661865234375
1781548228783048,169713848,-0.9185786843299866,-0.3536747992038727,0.01886112429201603,-0.1754189282655716,3.3566091060638428,5.693665027618408,7.556339740753174,35.988197326660156,38.3441276550293,-68.27845001220703
1781548228783519,169730515,-0.9181186556816101,-0.3595242500305176,0.00918053463101387,-0.16648192703723907,3.027839422225952,5.714374542236328,7.412149906158447,45.17900848388672,33.10125732421875,-81.4156494140625
1781548228811755,169747182,-0.917015790939331,-0.3670783042907715,-0.000919053447432816,-0.15599635243415833,2.705732583999634,6.109127521514893,6.9171142578125,57.9119987487793,29.929405212402344,-91.60102081298828
1781548228841751,169763849,-0.9168605208396912,-0.37227606773376465,-0.011032694019377232,-0.14372026920318604,2.7858622074127197,6.242464542388916,6.90252685546875,40.68864440917969,28.020919799804688,-103.95842742919922
1781548228843305,169780516,-0.9175935387611389,-0.375163197517395,-0.021662164479494095,-0.12963633239269257,2.833155632019043,5.761745929718018,6.578003883361816,24.49500274658203,28.865766525268555,-117.73011779785156
1781548228871747,169797183,-0.9174642562866211,-0.3802012503147125,-0.033337246626615524,-0.11222776770591736,2.4510936737060547,4.783336162567139,5.63454008102417,41.71717834472656,25.09927749633789,-140.32028198242188
1781548228873182,169813850,-0.9157295823097229,-0.38863810896873474,-0.04646690934896469,-0.09077911823987961,2.233086347579956,4.764784812927246,4.96124792098999,69.4054946899414,21.463796615600586,-167.5985107421875
1781548228902224,169830517,-0.9116800427436829,-0.40099260210990906,-0.06040094420313835,-0.06630349159240723,1.8810573816299438,6.322246074676514,4.976001262664795,101.73168182373047,16.736642837524414,-186.1223602294922
1781548228903569,169847184,-0.9066969752311707,-0.41322195529937744,-0.07390474528074265,-0.04106519743800163,0.7017534375190735,9.197907447814941,5.541191577911377,103.63910675048828,12.384455680847168,-189.34730529785156
1781548228933398,169863851,-0.9069951772689819,-0.41210123896598816,-0.08524233102798462,-0.016320155933499336,0.643973171710968,9.951576232910156,5.520462512969971,4.528956413269043,1.367248773574829,-188.3864288330078
1781548228935030,169880518,-0.9134021997451782,-0.39561381936073303,-0.09555339068174362,0.007472450379282236,1.6375758647918701,7.347447395324707,4.610233783721924,-109.30200958251953,-4.189725875854492,-189.23927307128906
1781548228964172,169897185,-0.9183514714241028,-0.3798568844795227,-0.10644340515136719,0.031766146421432495,1.8049463033676147,4.491647720336914,3.866672992706299,-100.45325469970703,-0.9166785478591919,-193.55799865722656
1781548228992830,169913852,-0.9184610843658447,-0.37293583154678345,-0.11755520850419998,0.05940575897693634,1.3170685768127441,3.479440689086914,3.497912883758545,-29.615827560424805,-2.779341220855713,-209.85565185546875
1781548228994041,169930519,-0.913729190826416,-0.37494316697120667,-0.1271611899137497,0.09135992079973221,0.615642786026001,3.9177093505859375,2.8934788703918457,43.28908920288086,-15.79057788848877,-228.01318359375
1781548229022302,169947186,-0.9056962132453918,-0.38217979669570923,-0.135118767619133,0.12408089637756348,-1.543801188468933,5.4194159507751465,3.886326313018799,86.3616714477539,-21.95241355895996,-226.0897216796875
1781548229023900,169963853,-0.9003866314888,-0.3815712332725525,-0.14119228720664978,0.15418267250061035,-2.908773422241211,5.867739677429199,3.60803484916687,29.508821487426758,-36.02804946899414,-209.78350830078125
1781548229052137,169980520,-0.8979577422142029,-0.3733760416507721,-0.14687706530094147,0.1808018982410431,-2.303537130355835,4.981668472290039,2.936554431915283,-27.9969482421875,-40.135963439941406,-191.50770568847656
