host_t_us,sensor_t_us,qw,qx,qy,qz,ax,ay,az,gx,gy,gz
1781548220088192,151690170,-0.6323268413543701,-0.508192241191864,0.2840942442417145,-0.5110713243484497,8.977947235107422,3.5619709491729736,3.284917116165161,3.995344877243042,-3.1914708614349365,5.725624084472656
1781548220108151,151706837,-0.6317327618598938,-0.5084619522094727,0.28486907482147217,-0.511106550693512,8.913811683654785,3.5280792713165283,3.3416309356689453,0.9879651069641113,-5.191579341888428,4.915212154388428
1781548220109335,151723504,-0.6312230229377747,-0.5087294578552246,0.28603366017341614,-0.5108195543289185,8.888108253479004,3.4244649410247803,3.3651123046875,-1.3161600828170776,-7.837436199188232,4.586959362030029
1781548220138683,151740171,-0.6305044889450073,-0.5092365741729736,0.28716740012168884,-0.5105656981468201,8.836705207824707,3.3213629722595215,3.286468505859375,0.6269798874855042,-8.839431762695312,4.884708404541016
1781548220140005,151756838,-0.629231333732605,-0.5103595852851868,0.28779590129852295,-0.5106613636016846,8.701349258422852,3.2828264236450195,3.2657577991485596,7.7039899826049805,-8.682530403137207,5.3616180419921875
1781548220167758,151773505,-0.6272966861724854,-0.5121135115623474,0.28807953000068665,-0.5111254453659058,8.593382835388184,3.407841444015503,3.3978662490844727,14.693787574768066,-9.421412467956543,6.8197550773620605
1781548220169761,151790172,-0.6255744099617004,-0.5134470462799072,0.2883140444755554,-0.5117655992507935,8.711529731750488,3.5902531147003174,3.488111734390259,12.652384757995605,-6.693526744842529,7.490998268127441
1781548220228365,151806839,-0.6242589950561523,-0.514419436454773,0.2884872257709503,-0.5122973322868347,8.773165702819824,3.709848403930664,3.4751830101013184,9.664566993713379,-4.7355475425720215,6.093859672546387
1781548220229628,151823506,-0.6235047578811646,-0.5147876143455505,0.28939831256866455,-0.5123324394226074,8.78592300415039,3.680752992630005,3.4459640979766846,1.5031135082244873,-6.418210029602051,5.794163227081299
1781548220231470,151840173,-0.6231840252876282,-0.514618456363678,0.2908984124660492,-0.5120432376861572,8.821980476379395,3.5881378650665283,3.426771640777588,-5.054463863372803,-7.335543632507324,6.031556606292725
1781548220258911,151856840,-0.6230483651161194,-0.5141136050224304,0.292741984128952,-0.5116645693778992,8.71513843536377,3.465399742126465,3.4461073875427246,-8.537690162658691,-7.573154926300049,6.882386207580566
1781548220260015,151873507,-0.6230623126029968,-0.5131818652153015,0.2949802577495575,-0.5112969279289246,8.64871883392334,3.2747116088867188,3.3795676231384277,-12.261913299560547,-7.423081398010254,8.658171653747559
1781548220288408,151890174,-0.622511088848114,-0.5126685500144958,0.2970910370349884,-0.5112611055374146,8.718889236450195,3.1085944175720215,3.2318859100341797,-7.353322982788086,-8.323531150817871,10.767388343811035
1781548220290581,151906841,-0.6209557056427002,-0.513042688369751,0.2984817326068878,-0.5119669437408447,8.806899070739746,3.166114330291748,3.2178802490234375,4.030834197998047,-7.798368453979492,13.120941162109375
1781548220318331,151923508,-0.6187497973442078,-0.5140122771263123,0.2993614971637726,-0.5131499767303467,8.876097679138184,3.4100210666656494,3.307150363922119,11.64436149597168,-7.3648786544799805,14.423407554626465
1781548220320313,151940175,-0.6166775822639465,-0.5146973133087158,0.3007761240005493,-0.5141299962997437,8.947723388671875,3.6063668727874756,3.374816656112671,7.657701015472412,-9.079214096069336,15.564249038696289
1781548220347965,151956842,-0.615131139755249,-0.5145013332366943,0.3031611442565918,-0.5147774815559387,8.982683181762695,3.599651575088501,3.3487014770507812,-2.057445526123047,-10.168844223022461,17.552082061767578
1781548220378082,151973509,-0.6138260364532471,-0.5136599540710449,0.30629727244377136,-0.5153186917304993,9.083514213562012,3.485132932662964,3.2454946041107178,-8.5194673538208,-10.93508243560791,20.251266479492188
1781548220379453,151990176,-0.6126880645751953,-0.5122642517089844,0.3095621168613434,-0.5161106586456299,9.279706954956055,3.3780109882354736,3.19069504737854,-11.378073692321777,-8.277379035949707,22.33934211730957
1781548220409153,152006843,-0.6119168400764465,-0.5104937553405762,0.31257328391075134,-0.5169641971588135,9.467018127441406,3.3467183113098145,3.164252519607544,-13.217743873596191,-4.881471157073975,21.20184898376465
1781548220410961,152023510,-0.6122304201126099,-0.5077953934669495,0.31574776768684387,-0.5173214077949524,9.52454948425293,3.3315088748931885,3.1711175441741943,-22.5762882232666,-1.6809533834457397,17.82534408569336
1781548220438319,152040177,-0.6139566898345947,-0.5039520859718323,0.3195106089115143,-0.5167230367660522,9.422690391540527,3.109955310821533,2.954669713973999,-36.49397277832031,-0.35490426421165466,13.318719863891602
1781548220439347,152056844,-0.6160659193992615,-0.4999327063560486,0.3237411081790924,-0.5154825448989868,9.434868812561035,2.725781202316284,2.750004768371582,-41.636470794677734,-3.0869016647338867,11.254390716552734
1781548220467589,152073511,-0.617599368095398,-0.49657773971557617,0.32734060287475586,-0.5146163702011108,9.438738822937012,2.387242078781128,2.6172518730163574,-33.774925231933594,-2.763699531555176,11.231724739074707
1781548220469494,152090178,-0.6180719137191772,-0.49419644474983215,0.33001887798309326,-0.5146307945251465,9.319371223449707,2.2390058040618896,2.6347715854644775,-20.77739906311035,-1.6772639751434326,13.387177467346191
1781548220497678,152106845,-0.6177706122398376,-0.4924665689468384,0.33187490701675415,-0.5154567360877991,9.118080139160156,2.2297685146331787,2.651451587677002,-10.628746032714844,0.5140666961669922,15.301628112792969
1781548220527596,152123512,-0.6169339418411255,-0.4914696216583252,0.33283719420433044,-0.5167879462242126,8.990962028503418,2.2947404384613037,2.6736643314361572,-1.3843673467636108,2.2022006511688232,14.645269393920898
1781548220529509,152140179,-0.616054117679596,-0.4910535514354706,0.33307594060897827,-0.518077552318573,8.843667984008789,2.449183464050293,2.7115445137023926,3.69948148727417,2.9673290252685547,10.847208023071289
1781548220557839,152156846,-0.6159323453903198,-0.49035266041755676,0.33351415395736694,-0.5186039209365845,8.739468574523926,2.5439860820770264,2.655877113342285,-2.5204694271087646,2.297504186630249,6.240707874298096
1781548220559811,152173513,-0.6167949438095093,-0.48890966176986694,0.3346307575702667,-0.5182217359542847,8.800525665283203,2.409086227416992,2.483555793762207,-13.483379364013672,1.265479564666748,2.872972011566162
1781548220588250,152190180,-0.61748868227005,-0.4877367913722992,0.3357013165950775,-0.5178084373474121,8.956588745117188,2.205573081970215,2.328413724899292,-11.681469917297363,0.004232500214129686,2.5653371810913086
1781548220589953,152206847,-0.6172769069671631,-0.4874393045902252,0.33617115020751953,-0.5180360674858093,9.02851390838623,2.1559460163116455,2.301542282104492,-1.2971681356430054,-0.49710410833358765,4.479513645172119
1781548220617564,152223514,-0.6163281202316284,-0.4878511428833008,0.33608582615852356,-0.5188328623771667,9.13634967803955,2.213716506958008,2.4241018295288086,7.48443603515625,-0.4604140520095825,6.022053241729736
1781548220622524,152240181,-0.6146600246429443,-0.4891121983528137,0.33567014336586,-0.5198924541473389,9.079496383666992,2.334069013595581,2.498305082321167,15.237428665161133,-2.882199764251709,6.617335796356201
1781548220648173,152256848,-0.6127867698669434,-0.49062612652778625,0.33550482988357544,-0.5207829475402832,9.086751937866211,2.450796127319336,2.6452627182006836,15.720942497253418,-5.882551193237305,6.897666931152344
1781548220678284,152273515,-0.6113161444664001,-0.4917210638523102,0.33554571866989136,-0.5214518308639526,9.198568344116211,2.532069444656372,2.763838291168213,11.414044380187988,-5.051609039306641,6.205314636230469
1781548220679934,152290182,-0.6104167103767395,-0.49243074655532837,0.335470050573349,-0.5218845009803772,9.268426895141602,2.5574707984924316,2.8200223445892334,7.689389705657959,-2.6741201877593994,3.64414381980896
1781548220708469,152306849,-0.6100864410400391,-0.4928072690963745,0.3355143368244171,-0.5218867659568787,9.257877349853516,2.5377020835876465,2.844228506088257,2.933441638946533,-2.1279032230377197,0.9681920409202576
1781548220709461,152323516,-0.6103116869926453,-0.4926760494709015,0.3359939455986023,-0.5214385986328125,9.282171249389648,2.385162353515625,2.7430901527404785,-3.672041177749634,-2.3749375343322754,-0.2657189667224884
1781548220737877,152340183,-0.6103701591491699,-0.4927310347557068,0.33636948466300964,-0.521075963973999,9.365278244018555,2.19279146194458,2.67145037651062,-1.7571463584899902,-2.701653003692627,-0.09267955273389816
1781548220739775,152356850,-0.609691858291626,-0.4935528039932251,0.33585137128829956,-0.5214265584945679,9.424386024475098,2.139543294906616,2.7432034015655518,8.800480842590332,-0.9868830442428589,0.737165629863739
1781548220768057,152373517,-0.6082839965820312,-0.49520090222358704,0.3343692123889923,-0.5224593877792358,9.440673828125,2.3102967739105225,2.8433241844177246,19.77658462524414,0.723514974117279,1.033902883529663
1781548220770487,152390184,-0.6067546606063843,-0.49691498279571533,0.3326473534107208,-0.5237082839012146,9.345114707946777,2.572061538696289,2.9719326496124268,21.82917022705078,1.9462929964065552,1.4072599411010742
1781548220797778,152406851,-0.6055358648300171,-0.4981805384159088,0.3314201831817627,-0.5246935486793518,9.297575950622559,2.713578939437866,2.958592176437378,16.50852394104004,1.306524395942688,1.9046070575714111
1781548220828365,152423518,-0.6044745445251465,-0.49919283390045166,0.3304702639579773,-0.525553822517395,9.250732421875,2.713106870651245,2.9357080459594727,13.63231086730957,0.996789276599884,2.344158887863159
1781548220829422,152440185,-0.6033761501312256,-0.5002434253692627,0.3294577896595001,-0.5264519453048706,9.233362197875977,2.7474424839019775,2.9453787803649902,14.2258939743042,1.1629199981689453,2.333024263381958
1781548220858081,152456852,-0.6024205088615417,-0.5010405778884888,0.3288009464740753,-0.527198076248169,9.299042701721191,2.7810776233673096,2.9749948978424072,11.05426025390625,0.4058525860309601,2.983093023300171
1781548220858885,152473519,-0.6019530296325684,-0.5010906457901001,0.32864364981651306,-0.5277822613716125,9.385771751403809,2.7811920642852783,3.0033955574035645,4.098601818084717,1.589837908744812,3.952366352081299
1781548220888182,152490186,-0.601822018623352,-0.5006571412086487,0.3287942707538605,-0.5282490849494934,9.355090141296387,2.7014858722686768,2.991884708404541,-0.44640377163887024,2.4256956577301025,4.398731231689453
1781548220890628,152506853,-0.6019337177276611,-0.5000239014625549,0.32922375202178955,-0.5284542441368103,9.268430709838867,2.597386598587036,2.9896750450134277,-3.7116899490356445,1.644546627998352,3.8467140197753906
1781548220918638,152523520,-0.6021373867988586,-0.4993599057197571,0.32988905906677246,-0.528435230255127,9.232928276062012,2.481255054473877,3.0010414123535156,-5.521061420440674,0.217829629778862,3.4648802280426025
1781548220919669,152540187,-0.6023879051208496,-0.4986589848995209,0.33044129610061646,-0.5284664630889893,9.160445213317871,2.3678393363952637,3.0237534046173096,-5.308258533477783,1.0986377000808716,3.1982645988464355
1781548220947765,152556854,-0.6025448441505432,-0.49811220169067383,0.33061620593070984,-0.5286937952041626,9.088212013244629,2.3163869380950928,3.0345382690429688,-2.5313029289245605,2.561762809753418,2.707038164138794
1781548220978105,152573521,-0.6024652719497681,-0.4980015456676483,0.33049291372299194,-0.5289656519889832,9.065129280090332,2.3166940212249756,3.03694486618042,1.269563913345337,1.8266273736953735,1.7384814023971558
1781548220980146,152590188,-0.6023911237716675,-0.4979020357131958,0.33033379912376404,-0.5292431116104126,9.130826950073242,2.322763442993164,3.013226270675659,1.4437812566757202,1.9662162065505981,1.5944095849990845
1781548221008481,152606855,-0.6024254560470581,-0.4976958930492401,0.3301861584186554,-0.5294898152351379,9.157115936279297,2.3089053630828857,2.960116147994995,0.5133617520332336,2.44663405418396,1.352369785308838
1781548221010212,152623522,-0.6023326516151428,-0.49766167998313904,0.32992202043533325,-0.5297920107841492,9.201432228088379,2.274397134780884,2.963109016418457,2.218501567840576,2.2060797214508057,1.2582303285598755
1781548221037834,152640189,-0.6018892526626587,-0.49807825684547424,0.3291644752025604,-0.5303758382797241,9.257746696472168,2.308281421661377,2.9678730964660645,7.71498966217041,2.773747205734253,0.9887466430664062
1781548221039269,152656856,-0.6013427972793579,-0.4986903667449951,0.3279867172241211,-0.5311494469642639,9.178053855895996,2.45806884765625,3.049644947052002,10.835925102233887,4.215435981750488,0.26717260479927063
1781548221068340,152673523,-0.6009888052940369,-0.49915826320648193,0.3272184729576111,-0.5315843224525452,9.126667976379395,2.57723331451416,3.0803849697113037,7.322563171386719,2.322144031524658,-0.10620307922363281
1781548221070036,152690190,-0.600953996181488,-0.4992433190345764,0.3270568251609802,-0.531643271446228,9.22879409790039,2.5835161209106445,3.0321593284606934,1.5798618793487549,0.6413099765777588,0.11615999788045883
1781548221098136,152706857,-0.6010245084762573,-0.49920377135276794,0.326869934797287,-0.5317153930664062,9.300355911254883,2.5541491508483887,3.0438497066497803,0.8293456435203552,1.48496675491333,-0.019081462174654007
1781548221128187,152723524,-0.6011426448822021,-0.49908730387687683,0.3266937732696533,-0.5317995548248291,9.306413650512695,2.564894914627075,3.0276827812194824,0.3351869583129883,1.8690418004989624,0.06621523201465607
1781548221129071,152740191,-0.6014635562896729,-0.4986841380596161,0.32678908109664917,-0.5317565202713013,9.281506538391113,2.5301976203918457,3.0030758380889893,-2.8223400115966797,1.815152645111084,0.3747842311859131
1781548221158123,152756858,-0.6019452214241028,-0.49805864691734314,0.327099472284317,-0.5316064357757568,9.241497039794922,2.4344937801361084,3.0010621547698975,-5.319463729858398,1.7330642938613892,0.5816068649291992
1781548221159817,152773525,-0.6022961735725403,-0.4976401627063751,0.32727035880088806,-0.5314958691596985,9.21284294128418,2.3345446586608887,2.970750093460083,-3.4166953563690186,1.3948609828948975,0.2795305848121643
1781548221188092,152790192,-0.6022472381591797,-0.49776923656463623,0.32705527544021606,-0.5315627455711365,9.187000274658203,2.2933547496795654,2.9775004386901855,2.030094623565674,0.6998094320297241,-0.07677407562732697
1781548221190063,152806859,-0.6018813252449036,-0.49836891889572144,0.3264593482017517,-0.5317815542221069,9.151444435119629,2.3573083877563477,3.023115396499634,6.795990943908691,0.3636043071746826,-0.6510108113288879
1781548221217847,152823526,-0.601487934589386,-0.49905699491500854,0.3257425129413605,-0.5320209860801697,9.204322814941406,2.46103835105896,3.050273895263672,7.7444167137146,0.5493733286857605,-1.0781794786453247
1781548221221123,152840193,-0.601263701915741,-0.4995887279510498,0.3250543773174286,-0.5321964025497437,9.211277961730957,2.5563955307006836,3.0301856994628906,6.2696380615234375,1.1629257202148438,-1.5131858587265015
1781548221247766,152856860,-0.6012592911720276,-0.4998762905597687,0.32462581992149353,-0.5321928262710571,9.229812622070312,2.6203718185424805,3.016202449798584,3.151931047439575,0.8581215739250183,-1.6210918426513672
1781548221278166,152873527,-0.6016215682029724,-0.4997612535953522,0.32449111342430115,-0.5319734811782837,9.232650756835938,2.6137351989746094,3.017474889755249,-1.3296191692352295,1.1939423084259033,-1.946168065071106
1781548221280235,152890194,-0.6023584008216858,-0.4992523789405823,0.3245841860771179,-0.5315605998039246,9.200312614440918,2.509909152984619,3.0206637382507324,-5.506218910217285,1.8631641864776611,-2.4539787769317627
1781548221337937,152906861,-0.6030588746070862,-0.4988582134246826,0.32455405592918396,-0.5311548113822937,9.184268951416016,2.4053285121917725,3.02815318107605,-4.444572448730469,1.896550178527832,-2.9716243743896484
1781548221339802,152923528,-0.6034054756164551,-0.49891018867492676,0.324157178401947,-0.5309546589851379,9.145503997802734,2.3849575519561768,3.0004117488861084,0.4221036732196808,1.7048388719558716,-3.079261064529419
1781548221341778,152940195,-0.6032683849334717,-0.4995158016681671,0.3235511779785156,-0.5309107303619385,9.204581260681152,2.462291717529297,2.999224901199341,5.4755024909973145,0.0055259400978684425,-2.620729923248291
1781548221367626,152956862,-0.6029694080352783,-0.5002117156982422,0.32280275225639343,-0.5310506224632263,9.246706008911133,2.5825419425964355,3.0946521759033203,7.352081298828125,0.5420352220535278,-1.951751947402954
1781548221369289,152973529,-0.6029399633407593,-0.5005220770835876,0.32217222452163696,-0.53117436170578,9.241560935974121,2.68544602394104,3.102911949157715,4.355689525604248,2.002394437789917,-1.7432259321212769
1781548221372246,152990196,-0.6032400131225586,-0.5004802346229553,0.3218784034252167,-0.5310512781143188,9.231841087341309,2.7033884525299072,3.0927345752716064,-0.015265167690813541,1.77277672290802,-2.0315864086151123
1781548221397859,153006863,-0.6036747097969055,-0.5003435015678406,0.3217231035232544,-0.5307801961898804,9.20165729522705,2.6519389152526855,3.0296218395233154,-1.703808069229126,1.3344151973724365,-2.4494705200195312
1781548221427890,153023530,-0.6042261719703674,-0.5001183748245239,0.32166606187820435,-0.5303992033004761,9.159331321716309,2.6295719146728516,3.0196354389190674,-3.071641683578491,1.129744291305542,-2.7974960803985596
1781548221429096,153040197,-0.6048048734664917,-0.49984103441238403,0.32166415452957153,-0.5300021171569824,9.121755599975586,2.5870602130889893,3.0085837841033936,-3.598623514175415,1.1016343832015991,-2.651414155960083
1781548221457845,153056864,-0.6052129864692688,-0.49968311190605164,0.3216210901737213,-0.5297114253044128,9.117111206054688,2.55928373336792,2.983415126800537,-2.1473817825317383,0.8212905526161194,-1.998763918876648
1781548221459469,153073531,-0.6053475141525269,-0.4997430145740509,0.32137441635131836,-0.529650866985321,9.074142456054688,2.5638389587402344,2.9877004623413086,0.9426944255828857,1.0589888095855713,-1.2282310724258423
1781548221488162,153090198,-0.6052500605583191,-0.4999692142009735,0.32098501920700073,-0.5297850966453552,9.013988494873047,2.614839553833008,2.99625563621521,3.37933349609375,1.203239917755127,-0.43183013796806335
1781548221489177,153106865,-0.6050717234611511,-0.5002591013908386,0.3205949068069458,-0.5299510359764099,8.927589416503906,2.6622965335845947,3.0308117866516113,3.993358850479126,0.9039553999900818,-0.14788773655891418
1781548221517723,153123532,-0.6049425005912781,-0.5005180835723877,0.3203606605529785,-0.5299956202507019,8.947566986083984,2.6862618923187256,2.9966633319854736,2.864863872528076,0.06096462905406952,-0.22563506662845612
1781548221519314,153140199,-0.6048973798751831,-0.5006651282310486,0.32023024559020996,-0.529987096786499,8.990252494812012,2.7057082653045654,3.0165889263153076,1.6020551919937134,0.034929316490888596,-0.15397074818611145
1781548221548006,153156866,-0.6048838496208191,-0.5007115602493286,0.32017844915390015,-0.5299898386001587,9.06985092163086,2.7157678604125977,3.0336556434631348,0.8250938653945923,0.1869150698184967,0.2745489180088043
1781548221578738,153173533,-0.6049752831459045,-0.5005656480789185,0.3203667998313904,-0.5299098491668701,9.116681098937988,2.711225986480713,3.0401296615600586,-1.3978898525238037,-0.16611114144325256,0.7969326376914978
1781548221579898,153190200,-0.6051722764968872,-0.5002089738845825,0.3208244740962982,-0.5297446250915527,9.151834487915039,2.6565499305725098,2.9894371032714844,-3.813782215118408,-0.5818436741828918,1.4470854997634888
1781548221607718,153206867,-0.6052702069282532,-0.49996501207351685,0.32120561599731445,-0.5296321511268616,9.175374984741211,2.6330199241638184,2.9811408519744873,-2.582643747329712,-0.7031583189964294,1.523411512374878
1781548221610000,153223534,-0.6052727699279785,-0.4997885227203369,0.3215131163597107,-0.5296090245246887,9.189127922058105,2.59899640083313,3.0231773853302,-1.532638430595398,-0.5524019002914429,1.8327745199203491
1781548221638067,153240201,-0.6054059267044067,-0.4994489550590515,0.321829617023468,-0.5295849442481995,9.151459693908691,2.6006858348846436,3.0159239768981934,-2.6320765018463135,0.30703863501548767,1.7644269466400146
1781548221639608,153256868,-0.605607807636261,-0.4991045892238617,0.32219699025154114,-0.5294554829597473,9.15385913848877,2.5462543964385986,3.00091552734375,-3.332775831222534,-0.10402598977088928,1.2531206607818604
1781548221668733,153273535,-0.6055589914321899,-0.499151349067688,0.32227858901023865,-0.5294174551963806,9.221046447753906,2.5129988193511963,2.934717893600464,0.3693671226501465,-0.5880419611930847,0.6893464922904968
1781548221670633,153290202,-0.6052297949790955,-0.4995521008968353,0.32210615277290344,-0.5295209884643555,9.31800365447998,2.5452425479888916,2.950500726699829,4.043124198913574,-0.9548797607421875,0.6427186727523804
1781548221697792,153306869,-0.6048938035964966,-0.49992939829826355,0.32194235920906067,-0.52964848279953,9.344353675842285,2.6153321266174316,2.998060703277588,3.984689235687256,-0.8391104340553284,0.8473513126373291
1781548221728305,153323536,-0.6047244668006897,-0.5000292658805847,0.32201507687568665,-0.5297034382820129,9.305502891540527,2.645205020904541,3.0341193675994873,1.1935323476791382,-0.7057449817657471,1.3516011238098145
1781548221730437,153340203,-0.6046187281608582,-0.5000168681144714,0.3221452236175537,-0.5297564268112183,9.245464324951172,2.5982186794281006,3.0411550998687744,0.34661027789115906,-0.3862651586532593,1.5747777223587036
1781548221758945,153356870,-0.6044485569000244,-0.5001091361045837,0.3220751881599426,-0.5299062132835388,9.16545581817627,2.6107027530670166,3.051668167114258,1.940924048423767,0.25295743346214294,1.2900925874710083
1781548221760443,153373537,-0.604431688785553,-0.5000950694084167,0.3220583498477936,-0.5299488306045532,9.107076644897461,2.637678861618042,3.072826862335205,0.556659996509552,0.39486458897590637,0.7095165848731995
1781548221787886,153390204,-0.6046851873397827,-0.4998336732387543,0.322282075881958,-0.5297701358795166,9.107748985290527,2.6278483867645264,3.062800645828247,-2.7848687171936035,0.1288895159959793,0.17410872876644135
1781548221789802,153406871,-0.6050487160682678,-0.4993981420993805,0.32259416580200195,-0.5295758843421936,9.123636245727539,2.5465502738952637,2.9975926876068115,-4.250837326049805,0.5841808319091797,0.3956969976425171
1781548221819244,153423538,-0.6051489114761353,-0.49922505021095276,0.32257670164108276,-0.5296353101730347,9.107648849487305,2.503910541534424,2.9682798385620117,-0.48442578315734863,1.2888630628585815,0.6981317400932312
1781548221821157,153440205,-0.6049486994743347,-0.49939706921577454,0.3223089575767517,-0.5298648476600647,9.088702201843262,2.5574448108673096,2.9979960918426514,3.287677764892578,0.9952902793884277,0.8814930319786072
1781548221847724,153456872,-0.6048264503479004,-0.4994891285896301,0.3222008943557739,-0.5299833416938782,9.123880386352539,2.6263022422790527,3.0086328983306885,1.888507604598999,0.4220268726348877,0.8694295883178711
1781548221877995,153473539,-0.604951798915863,-0.4992891252040863,0.322382390499115,-0.5299182534217834,9.121813774108887,2.611478805541992,3.0165176391601562,-1.694612979888916,0.1842513382434845,0.8278472423553467
1781548221879987,153490206,-0.6051374077796936,-0.4990358054637909,0.3226519525051117,-0.5297809839248657,9.163650512695312,2.5514984130859375,2.975493907928467,-2.5885987281799316,-0.09718739241361618,0.7338742017745972
1781548221908047,153506873,-0.6050868630409241,-0.4990993142127991,0.3227461278438568,-0.5297214388847351,9.191704750061035,2.51314640045166,2.95758318901062,0.3345851004123688,-0.7833131551742554,0.6066431403160095
1781548221910333,153523540,-0.6048386693000793,-0.4993695914745331,0.32265639305114746,-0.5298051238059998,9.228779792785645,2.5440540313720703,2.9936821460723877,2.879488468170166,-0.7138643264770508,0.8388863801956177
1781548221938569,153540207,-0.6046090126037598,-0.49963563680648804,0.32251590490341187,-0.5299018621444702,9.183276176452637,2.6013216972351074,3.014258861541748,3.0264029502868652,-0.3968815803527832,0.6655651926994324
1781548221940226,153556874,-0.6045165061950684,-0.4997159242630005,0.32255280017852783,-0.5299091339111328,9.170600891113281,2.616203784942627,3.0350899696350098,0.9173892736434937,-0.4664328694343567,0.8080615401268005
1781548221968617,153573541,-0.6045284271240234,-0.49966028332710266,0.3226362466812134,-0.529897153377533,9.167142868041992,2.616478443145752,3.0276598930358887,-0.20906364917755127,0.00348973018117249,0.8123003244400024
1781548221971443,153590208,-0.6044991612434387,-0.499703973531723,0.3225966989994049,-0.5299134254455566,9.144110679626465,2.58727765083313,2.9912545680999756,0.842497706413269,0.15411798655986786,0.432502418756485
1781548221997641,153606875,-0.6044531464576721,-0.4997449219226837,0.3226136863231659,-0.5299169421195984,9.169906616210938,2.6123979091644287,2.996978521347046,0.6633240580558777,-0.1487969607114792,0.6441401243209839
1781548222027475,153623542,-0.6044159531593323,-0.4997155964374542,0.3227142095565796,-0.5299257040023804,9.14590072631836,2.601895809173584,3.007690668106079,0.14199040830135345,-0.1757415235042572,1.1057322025299072
1781548222029456,153640209,-0.6042930483818054,-0.4997171461582184,0.3228215277194977,-0.5299990773200989,9.125584602355957,2.5993804931640625,3.024123191833496,0.5519088506698608,-0.32246389985084534,1.6000062227249146
1781548222057505,153656876,-0.6041953563690186,-0.49967893958091736,0.32292190194129944,-0.5300854444503784,9.12856388092041,2.5891709327697754,3.057039499282837,0.41237083077430725,-0.03108101338148117,1.6450843811035156
1781548222059338,153673543,-0.6042121052742004,-0.49952858686447144,0.32304441928863525,-0.5301333665847778,9.116826057434082,2.5970020294189453,3.012939214706421,-0.51826012134552,0.4335781931877136,1.423278570175171
1781548222087953,153690210,-0.6043595671653748,-0.4992499053478241,0.32325977087020874,-0.5300963521003723,9.120265007019043,2.587383270263672,2.988673686981201,-2.095643997192383,0.4953944683074951,1.1762568950653076
1781548222089806,153706877,-0.60458904504776,-0.49888601899147034,0.3235546052455902,-0.5299974679946899,9.138928413391113,2.556938648223877,2.9517486095428467,-3.200716495513916,0.434000700712204,1.0689523220062256
1781548222118033,153723544,-0.6047500371932983,-0.498630166053772,0.3237874209880829,-0.5299124121665955,9.127317428588867,2.5163211822509766,2.936933755874634,-2.293360948562622,0.18309879302978516,0.9124203324317932
1781548222120915,153740211,-0.6046695709228516,-0.4986732304096222,0.3238997757434845,-0.529895007610321,9.163841247558594,2.500429630279541,2.930238723754883,0.34586748480796814,-0.716233491897583,0.9880290031433105
1781548222147867,153756878,-0.6044377684593201,-0.4988560974597931,0.32387661933898926,-0.5300017595291138,9.214098930358887,2.5125629901885986,2.9419443607330322,2.2883219718933105,-0.5533239841461182,1.3027194738388062
1781548222178227,153773545,-0.6042236685752869,-0.49895671010017395,0.3238150477409363,-0.5301886200904846,9.227270126342773,2.5563602447509766,3.006481885910034,2.193580389022827,0.217624694108963,1.6198557615280151
1781548222179373,153790212,-0.6040290594100952,-0.49905186891555786,0.323718786239624,-0.5303797125816345,9.1687650680542,2.583712339401245,2.9990649223327637,2.200303792953491,0.4280714988708496,1.446752667427063
1781548222208576,153806879,-0.6038272976875305,-0.4992007911205292,0.32370641827583313,-0.5304766893386841,9.159074783325195,2.5975265502929688,2.974632501602173,1.9058219194412231,-0.4625782072544098,1.2414923906326294
1781548222209646,153823546,-0.6037225723266602,-0.4993518590927124,0.3237481117248535,-0.5304282903671265,9.207773208618164,2.6034111976623535,2.988582134246826,1.072448492050171,-0.9745504856109619,0.468821257352829
1781548222238179,153840213,-0.6038010120391846,-0.49923235177993774,0.3238445222377777,-0.5303927063941956,9.217905044555664,2.572572946548462,3.0260121822357178,-0.7892809510231018,0.25417405366897583,0.6634649634361267
1781548222239456,153856880,-0.6039239764213562,-0.498996376991272,0.32403507828712463,-0.5303581357002258,9.231449127197266,2.5309500694274902,2.9836554527282715,-1.8178359270095825,0.3764490783214569,1.0719491243362427
1781548222268204,153873547,-0.6038787364959717,-0.4989004135131836,0.3241635262966156,-0.5304214358329773,9.212873458862305,2.519160747528076,2.947179079055786,-0.1393458992242813,0.10590212047100067,1.58982515335083
1781548222269859,153890214,-0.6037026047706604,-0.4989766478538513,0.32416144013404846,-0.530551552772522,9.213944435119629,2.5479211807250977,2.9654927253723145,1.6296144723892212,-0.04883061349391937,1.506455898284912
1781548222297750,153906881,-0.6035295128822327,-0.49912184476852417,0.32416558265686035,-0.5306094288825989,9.235652923583984,2.6014561653137207,3.031374931335449,1.7370214462280273,-0.562544584274292,1.068555474281311
1781548222328098,153923548,-0.6034941673278809,-0.49911656975746155,0.32429319620132446,-0.5305765271186829,9.219371795654297,2.6075310707092285,3.0681982040405273,-0.05533623695373535,-0.5422207713127136,0.9350618720054626
1781548222330043,153940215,-0.6037099957466125,-0.49877503514289856,0.3246110677719116,-0.5304579138755798,9.196556091308594,2.5585732460021973,3.027552366256714,-3.1418075561523438,0.17561988532543182,1.083487629890442
1781548222358069,153956882,-0.6039761304855347,-0.498329758644104,0.3249579668045044,-0.530360996723175,9.168306350708008,2.4614241123199463,2.9593605995178223,-3.862215518951416,0.6043636202812195,1.3025914430618286
1781548222359222,153973549,-0.6039820909500122,-0.4982239007949829,0.3249930143356323,-0.5304321050643921,9.160062789916992,2.4284675121307373,2.8999643325805664,-0.07768330723047256,0.6479436755180359,1.1121737957000732
1781548222389183,153990216,-0.6037262678146362,-0.4985368847846985,0.3245636522769928,-0.5306922197341919,9.152674674987793,2.490799903869629,2.923271656036377,4.741787910461426,1.130000352859497,0.34659746289253235
1781548222390662,154006883,-0.6034722924232483,-0.49890467524528503,0.32416388392448425,-0.5308796167373657,9.14863395690918,2.5783848762512207,3.020416259765625,4.665040016174316,0.5546751022338867,0.008829979225993156
1781548222447663,154023550,-0.6034806966781616,-0.4988884925842285,0.3241440951824188,-0.530897319316864,9.160630226135254,2.593665838241577,3.0154616832733154,0.42562544345855713,0.38727039098739624,0.5120298266410828
1781548222449321,154040217,-0.6035512685775757,-0.49871623516082764,0.32419121265411377,-0.5309501886367798,9.208393096923828,2.5563011169433594,2.9640862941741943,-0.6520097255706787,0.9245480895042419,0.9923320412635803
1781548222450889,154056884,-0.6035469770431519,-0.49863094091415405,0.3241375982761383,-0.5310680270195007,9.179709434509277,2.546788215637207,2.948784828186035,0.5563526749610901,1.102645993232727,1.0206724405288696
1781548222477815,154073551,-0.6035139560699463,-0.4986424446105957,0.32409992814064026,-0.5311176776885986,9.18061637878418,2.5849006175994873,2.96146559715271,0.7923736572265625,0.37054532766342163,0.66374671459198
1781548222479365,154090218,-0.6034565567970276,-0.4986855089664459,0.3241264224052429,-0.5311263203620911,9.209784507751465,2.5468175411224365,3.0164377689361572,0.6852614283561707,-0.20468388497829437,0.7341303825378418
1781548222507936,154106885,-0.6033825874328613,-0.49871399998664856,0.32410821318626404,-0.531194806098938,9.140202522277832,2.5560250282287598,3.039530038833618,1.0331459045410156,0.2172020822763443,0.9401717185974121
1781548222510330,154123552,-0.6033666729927063,-0.4986434578895569,0.32418426871299744,-0.5312325358390808,9.133431434631348,2.5366005897521973,3.0330655574798584,0.013389039784669876,0.21250218152999878,1.1452527046203613
1781548222537657,154140219,-0.6032203435897827,-0.4987138509750366,0.3241919279098511,-0.5313279628753662,9.18819808959961,2.5345799922943115,2.9743459224700928,1.3345303535461426,-0.13593940436840057,1.2834843397140503
1781548222539805,154156886,-0.6029512882232666,-0.49886566400527954,0.3240510821342468,-0.5315766930580139,9.222146034240723,2.547701358795166,2.9974217414855957,2.9518704414367676,0.42762327194213867,1.6693270206451416
1781548222568652,154173553,-0.6028541326522827,-0.4988202154636383,0.3239646852016449,-0.5317820906639099,9.223456382751465,2.626569986343384,3.0472912788391113,1.3432132005691528,1.1834667921066284,1.517494797706604
1781548222571441,154190220,-0.6031102538108826,-0.4984534978866577,0.32417669892311096,-0.5317064523696899,9.204937934875488,2.608591318130493,3.0469086170196533,-2.9721872806549072,0.9283387064933777,0.7827433943748474
1781548222597772,154206887,-0.6035544872283936,-0.49794837832450867,0.3245881497859955,-0.5314247608184814,9.162774085998535,2.513535499572754,2.9875571727752686,-5.276524066925049,0.3491203188896179,0.26561012864112854
1781548222627910,154223554,-0.6038211584091187,-0.4976256489753723,0.32484170794487,-0.5312691330909729,9.14659595489502,2.399320602416992,2.924236536026001,-3.33303165435791,0.2956537902355194,0.4002816379070282
1781548222629438,154240221,-0.6036761999130249,-0.4977512061595917,0.3247716426849365,-0.5313590168952942,9.134923934936523,2.4052388668060303,2.960437059402466,1.8571574687957764,-0.024588191881775856,0.8758198022842407
1781548222658500,154256888,-0.6033430099487305,-0.498075008392334,0.32450810074806213,-0.5315951108932495,9.170001029968262,2.456186056137085,2.9938485622406006,4.2689385414123535,0.11001294106245041,1.0369365215301514
1781548222660094,154273555,-0.6030893325805664,-0.49831002950668335,0.3242252767086029,-0.5318350791931152,9.16026496887207,2.5378270149230957,2.9776182174682617,3.762845516204834,0.7199154496192932,0.9116393327713013
1781548222689788,154290222,-0.6029530763626099,-0.4984762370586395,0.32404187321662903,-0.5319454073905945,9.169591903686523,2.5673365592956543,2.943173885345459,2.505645513534546,0.40096035599708557,0.4658373296260834
1781548222691277,154306889,-0.6028368473052979,-0.49866387248039246,0.32388705015182495,-0.5319958329200745,9.200908660888672,2.5757527351379395,2.946256160736084,2.2476234436035156,0.03184298798441887,0.18189500272274017
1781548222717814,154323556,-0.6027623414993286,-0.4988117814064026,0.32375577092170715,-0.5320212841033936,9.234183311462402,2.5619027614593506,3.0146570205688477,1.793151617050171,0.0855272188782692,0.09287805110216141
1781548222719507,154340223,-0.6028042435646057,-0.49880853295326233,0.323729008436203,-0.5319932103157043,9.230695724487305,2.5648951530456543,3.0111987590789795,0.2923881411552429,0.28826451301574707,0.14902108907699585
1781548222748134,154356890,-0.6027847528457642,-0.4988558292388916,0.32370758056640625,-0.5319839119911194,9.20730209350586,2.5619089603424072,3.0015933513641357,0.7781842350959778,0.020637432113289833,0.37077584862709045
1781548222777868,154373557,-0.6026689410209656,-0.49894648790359497,0.32367274165153503,-0.5320513844490051,9.182459831237793,2.5938198566436768,3.048173427581787,1.57210111618042,-0.015905488282442093,0.9189388751983643
1781548222779831,154390224,-0.6026468873023987,-0.4988381564617157,0.32376500964164734,-0.5321218371391296,9.184117317199707,2.5800108909606934,3.0804035663604736,-0.1357472985982895,0.37585994601249695,1.4349452257156372
1781548222807534,154406891,-0.6028493642807007,-0.4984681308269501,0.32401901483535767,-0.5320846438407898,9.153739929199219,2.5524742603302,3.076569080352783,-2.849297285079956,0.7856119275093079,1.2958554029464722
1781548222809602,154423558,-0.6031147837638855,-0.4980721175670624,0.32423415780067444,-0.532023549079895,9.17586898803711,2.5162134170532227,3.0297815799713135,-3.0989699363708496,1.0959737300872803,0.8859240412712097
1781548222837712,154440225,-0.603243350982666,-0.49785125255584717,0.32428157329559326,-0.5320557951927185,9.208866119384766,2.4996323585510254,2.967083215713501,-1.3193100690841675,1.1008145809173584,0.7332083582878113
1781548222839587,154456892,-0.603229284286499,-0.4978114068508148,0.3242271840572357,-0.5321419835090637,9.20358943939209,2.5287225246429443,2.9757096767425537,0.8872687816619873,0.8579422831535339,0.8783042430877686
1781548222867459,154473559,-0.6031616926193237,-0.4977395534515381,0.32417938113212585,-0.5323148369789124,9.17066764831543,2.560044288635254,3.029374837875366,0.8938639760017395,1.0661606788635254,1.4597123861312866
1781548222869161,154490226,-0.6031872630119324,-0.49754372239112854,0.3242957592010498,-0.5323981642723083,9.175782203674316,2.5532097816467285,3.0284743309020996,-0.7394258379936218,0.74066162109375,1.585394024848938
1781548222897901,154506893,-0.6033523678779602,-0.4971924126148224,0.32451486587524414,-0.5324059724807739,9.15858268737793,2.515085458755493,3.026758909225464,-2.369187355041504,0.9464340209960938,1.4710077047348022
1781548222928199,154523560,-0.6035271286964417,-0.49689722061157227,0.3246854543685913,-0.5323790907859802,9.156116485595703,2.4938807487487793,2.9899826049804688,-2.1445770263671875,0.8246840834617615,0.9769900441169739
1781548222929704,154540227,-0.6036363244056702,-0.49671560525894165,0.32477235794067383,-0.532371997833252,9.155862808227539,2.4729738235473633,2.9825925827026367,-1.0861961841583252,0.6806766390800476,0.7638794779777527
1781548222959204,154556894,-0.6036350727081299,-0.49665358662605286,0.3248060345649719,-0.5324106812477112,9.163309097290039,2.4738388061523438,2.9643616676330566,0.0906369537115097,0.37537336349487305,0.911063015460968
1781548222959828,154573561,-0.6036049723625183,-0.49656420946121216,0.32479697465896606,-0.5325336456298828,9.178715705871582,2.4875059127807617,2.9903008937835693,0.387270450592041,0.8680336475372314,1.2715617418289185
1781548222988238,154590228,-0.603560745716095,-0.49647256731987,0.3247435390949249,-0.532701849937439,9.124932289123535,2.4858951568603516,2.9872725009918213,0.7599735856056213,1.2019463777542114,1.3863961696624756
1781548222990019,154606895,-0.6034442782402039,-0.49648597836494446,0.324626088142395,-0.5328929424285889,9.121171951293945,2.5007777214050293,3.0081474781036377,1.505444049835205,0.9392497539520264,1.2219884395599365
1781548223018019,154623562,-0.6033457517623901,-0.4965600073337555,0.3245711624622345,-0.5329688191413879,9.159477233886719,2.515810251235962,3.023130416870117,1.579490303993225,0.2053946554660797,0.8751667737960815
1781548223020396,154640229,-0.6032288074493408,-0.49667176604270935,0.3245067596435547,-0.5330362915992737,9.220641136169434,2.5563783645629883,3.0159811973571777,1.7431554794311523,0.017051655799150467,0.7685537934303284
1781548223047952,154656896,-0.6031962037086487,-0.49663740396499634,0.3245469331741333,-0.5330806374549866,9.217941284179688,2.567688465118408,3.040139675140381,0.29191431403160095,0.19482938945293427,1.0068286657333374
1781548223077683,154673563,-0.6033620238304138,-0.4963042140007019,0.32480737566947937,-0.5330447554588318,9.15353012084961,2.5093514919281006,3.026306629180908,-2.53865385055542,0.5649072527885437,1.3896105289459229
1781548223080536,154690230,-0.6034862995147705,-0.4960342347621918,0.3250367343425751,-0.5330154895782471,9.128652572631836,2.457352876663208,3.049738645553589,-2.0198557376861572,0.3879747986793518,1.3175748586654663
1781548223107900,154706897,-0.6033763885498047,-0.4960204064846039,0.3250214457511902,-0.5331621766090393,9.185449600219727,2.4465601444244385,3.019808292388916,1.1251466274261475,0.5392305850982666,1.496748447418213
1781548223108985,154723564,-0.6030353307723999,-0.4962967336177826,0.32471469044685364,-0.5334776043891907,9.202921867370605,2.511836290359497,3.0422773361206055,4.618705749511719,0.7596663236618042,1.4194365739822388
1781548223137916,154740231,-0.6029514670372009,-0.4962717592716217,0.3245800733566284,-0.5336775779724121,9.213461875915527,2.5924320220947266,3.102712869644165,1.4188348054885864,1.2809231281280518,1.198488712310791
1781548223141771,154756898,-0.603248655796051,-0.49581387639045715,0.32494065165519714,-0.5335479378700256,9.257609367370605,2.5463132858276367,3.056612014770508,-3.920945644378662,0.625647783279419,1.189332127571106
1781548223167511,154773565,-0.6034720540046692,-0.49538639187812805,0.32527485489845276,-0.5334888696670532,9.297403335571289,2.4568920135498047,2.9928863048553467,-3.4612879753112793,0.6529766917228699,1.5393811464309692
1781548223170953,154790232,-0.6034687757492065,-0.4952595829963684,0.3252531588077545,-0.5336233973503113,9.235189437866211,2.470555305480957,3.023745059967041,0.1050056740641594,1.1270036697387695,1.2272131443023682
1781548223197778,154806899,-0.6034794449806213,-0.49514323472976685,0.3253481388092041,-0.533661425113678,9.16991138458252,2.501993179321289,3.1039185523986816,-0.40018558502197266,0.34607234597206116,1.1958887577056885
1781548223228641,154823566,-0.6036151647567749,-0.49487045407295227,0.32560741901397705,-0.5336029529571533,9.173711776733398,2.4637677669525146,3.1083245277404785,-2.4249463081359863,0.15429730713367462,1.2042515277862549
1781548223230330,154840233,-0.6037678718566895,-0.49450626969337463,0.32581934332847595,-0.5336385369300842,9.145282745361328,2.421855926513672,3.093411445617676,-2.4324252605438232,1.0558130741119385,1.5889159440994263
1781548223258586,154856900,-0.6038424372673035,-0.49421513080596924,0.3258306384086609,-0.5338167548179626,9.128085136413574,2.395202398300171,3.029447555541992,-0.7003921270370483,1.9592372179031372,1.6575194597244263
1781548223260653,154873567,-0.6037375926971436,-0.49420928955078125,0.32568851113319397,-0.5340274572372437,9.116619110107422,2.4402523040771484,3.015519380569458,1.7251625061035156,1.2566550970077515,1.2885557413101196
1781548223288741,154890234,-0.603688657283783,-0.494245320558548,0.3255918323993683,-0.5341083407402039,9.136630058288574,2.473238468170166,3.0234177112579346,1.9599543809890747,0.7887110710144043,0.8348780274391174
1781548223290479,154906901,-0.6037234663963318,-0.4941699802875519,0.32556208968162537,-0.5341569781303406,9.146678924560547,2.5014774799346924,3.06972599029541,0.11902861297130585,0.7896202802658081,0.6188476085662842
1781548223317875,154923568,-0.6039449572563171,-0.49382859468460083,0.3257524073123932,-0.5341060161590576,9.148660659790039,2.4709997177124023,3.0548741817474365,-2.4682445526123047,0.9812672734260559,0.9224861264228821
1781548223319788,154940235,-0.6041421294212341,-0.49350184202194214,0.32596614956855774,-0.5340546369552612,9.153305053710938,2.4084408283233643,3.017408609390259,-2.638709783554077,0.7143189311027527,0.9831113815307617
1781548223347823,154956902,-0.6041839122772217,-0.4933980405330658,0.32602930068969727,-0.5340647101402283,9.150604248046875,2.376631498336792,2.9975483417510986,-0.4217515289783478,0.40085795521736145,0.8216618299484253
1781548223378805,154973569,-0.6039555668830872,-0.49363937973976135,0.32586830854415894,-0.5341983437538147,9.187153816223145,2.4221973419189453,3.009798049926758,2.964202642440796,-0.1388336420059204,0.7723445892333984
1781548223380534,154990236,-0.6036164164543152,-0.4939596652984619,0.3256666958332062,-0.5344085097312927,9.218062400817871,2.4855899810791016,3.076885223388672,3.8953914642333984,-0.2739662826061249,1.151233434677124
1781548223408221,155006903,-0.603444516658783,-0.49406152963638306,0.325602650642395,-0.5345476269721985,9.190011978149414,2.516756772994995,3.099578857421875,1.9011859893798828,0.13028539717197418,1.2462307214736938
1781548223409409,155023570,-0.6035110950469971,-0.49390506744384766,0.32577741146087646,-0.5345103144645691,9.23741340637207,2.5039520263671875,3.0943033695220947,-1.195254921913147,0.038579124957323074,1.0461313724517822
1781548223438170,155040237,-0.6036027073860168,-0.49375119805336,0.3258973956108093,-0.5344759225845337,9.290226936340332,2.4457130432128906,3.027554512023926,-1.0660645961761475,0.3211256265640259,0.772767186164856
1781548223439322,155056904,-0.603590726852417,-0.49368783831596375,0.32589641213417053,-0.5345486998558044,9.25996208190918,2.445437431335449,3.033334970474243,0.45810234546661377,0.6517727971076965,1.0211975574493408
1781548223468035,155073571,-0.603558361530304,-0.49363458156585693,0.32586416602134705,-0.5346540808677673,9.216787338256836,2.4664740562438965,3.094172477722168,0.3795097768306732,0.7095293998718262,0.9802302122116089
1781548223469846,155090238,-0.6035621166229248,-0.49355897307395935,0.32586246728897095,-0.5347206592559814,9.229155540466309,2.471616744995117,3.1019015312194824,0.1114344447851181,0.6536168456077576,0.8876016736030579
1781548223497779,155106905,-0.6035692691802979,-0.49344179034233093,0.32580557465553284,-0.5348552465438843,9.214716911315918,2.440122604370117,3.08683443069458,0.4198113977909088,1.309506893157959,1.108101487159729
1781548223528140,155123572,-0.6035128831863403,-0.4933345913887024,0.32567328214645386,-0.5350983142852783,9.160475730895996,2.4582722187042236,3.0779876708984375,1.0476938486099243,1.7716752290725708,1.4646941423416138
1781548223529446,155140239,-0.6034179925918579,-0.4932190179824829,0.32556334137916565,-0.5353787541389465,9.106493949890137,2.47469425201416,3.098257541656494,1.225855827331543,1.772046446800232,1.8832439184188843
1781548223558001,155156906,-0.603400707244873,-0.4930093586444855,0.325543612241745,-0.5356031656265259,9.12312126159668,2.4706642627716064,3.0853824615478516,0.05690501630306244,1.711997628211975,1.8617295026779175
1781548223559516,155173573,-0.6034095287322998,-0.492787629365921,0.32545873522758484,-0.53584885597229,9.103920936584473,2.467618703842163,3.0379116535186768,0.03070322424173355,2.1114532947540283,1.6023752689361572
1781548223588022,155190240,-0.603438675403595,-0.4925628900527954,0.325422078371048,-0.5360450148582458,9.103921890258789,2.473893880844116,3.0662031173706055,-0.12784580886363983,1.8562226295471191,1.5618561506271362
1781548223589351,155206907,-0.6034884452819824,-0.4922935962677002,0.3255387246608734,-0.5361654758453369,9.191311836242676,2.485281229019165,3.0286641120910645,-1.0635546445846558,1.1884101629257202,1.808762550354004
1781548223617795,155223574,-0.6036083698272705,-0.4918711185455322,0.3257772624492645,-0.5362733006477356,9.252806663513184,2.441054582595825,3.079315185546875,-2.4639673233032227,1.3484638929367065,2.2361233234405518
1781548223619632,155240241,-0.6038228273391724,-0.49129369854927063,0.32616129517555237,-0.5363279581069946,9.230223655700684,2.374220609664917,3.0603158473968506,-4.050379753112793,1.3556994199752808,2.5173635482788086
1781548223648242,155256908,-0.6038421988487244,-0.4909765422344208,0.3263559639453888,-0.5364780426025391,9.206183433532715,2.324430227279663,3.009671926498413,-1.357857346534729,1.0781986713409424,2.421917676925659
1781548223679030,155273575,-0.603539228439331,-0.4910978078842163,0.32616323232650757,-0.5368249416351318,9.264727592468262,2.38675594329834,3.0263352394104004,3.5364155769348145,1.0405606031417847,2.175600290298462
1781548223679554,155290242,-0.6032683849334717,-0.49119409918785095,0.32595694065093994,-0.5371665358543396,9.264005661010742,2.4334747791290283,3.1115734577178955,3.284233570098877,1.2232691049575806,2.0187997817993164
1781548223707599,155306909,-0.6032871007919312,-0.4909219443798065,0.326144278049469,-0.5372804999351501,9.274059295654297,2.419271469116211,3.136164665222168,-1.134091854095459,0.8449053168296814,2.17764949798584
1781548223709664,155323576,-0.6034533381462097,-0.4904884099960327,0.3263615369796753,-0.5373579263687134,9.23484992980957,2.341904401779175,3.1326606273651123,-2.4373555183410645,1.538791537284851,1.9627841711044312
1781548223738168,155340243,-0.6035624742507935,-0.49026793241500854,0.3263322412967682,-0.5374544858932495,9.15743637084961,2.326180934906006,3.1232833862304688,-0.27586159110069275,1.7446154356002808,0.987119734287262
1781548223740439,155356910,-0.6036050915718079,-0.490233838558197,0.32623007893562317,-0.5374996066093445,9.09858226776123,2.3239834308624268,3.132767677307129,0.5727319121360779,0.9579981565475464,0.2554290294647217
1781548223767941,155373577,-0.6035811901092529,-0.4902721643447876,0.32606539130210876,-0.5375913381576538,9.10561466217041,2.302412986755371,3.115849018096924,1.3346712589263916,0.9315018653869629,0.2883797585964203
1781548223770220,155390244,-0.6032341718673706,-0.4906470477581024,0.3255903720855713,-0.5379266738891602,9.136188507080078,2.3219187259674072,3.1783714294433594,5.370720863342285,1.0346698760986328,0.645062267780304
1781548223797779,155406911,-0.602785050868988,-0.4910292625427246,0.3250158727169037,-0.5384287238121033,9.145618438720703,2.420593738555908,3.19590163230896,6.757059574127197,1.8252058029174805,1.4521825313568115
1781548223827881,155423578,-0.6024404168128967,-0.49126505851745605,0.3246353268623352,-0.5388286709785461,9.135007858276367,2.5004770755767822,3.1990067958831787,4.978514194488525,1.4845314025878906,1.667342185974121
1781548223829585,155440245,-0.6023582816123962,-0.49118608236312866,0.3246377110481262,-0.53899085521698,9.127277374267578,2.5587406158447266,3.2141716480255127,0.6151593923568726,0.7894154191017151,1.6306772232055664
1781548223857840,155456912,-0.602616012096405,-0.4907165467739105,0.32499951124191284,-0.5389123558998108,9.149693489074707,2.4870941638946533,3.1978554725646973,-3.6654722690582275,0.7865981459617615,1.5791192054748535
1781548223859333,155473579,-0.6029298901557922,-0.49016156792640686,0.32537075877189636,-0.5388427972793579,9.14518928527832,2.3872318267822266,3.1690926551818848,-4.187894821166992,1.2273542881011963,1.6431125402450562
1781548223887659,155490246,-0.6030705571174622,-0.4898371398448944,0.3254872262477875,-0.5389094352722168,9.1215238571167,2.3447937965393066,3.1765854358673096,-1.6564757823944092,1.4345611333847046,1.3889576196670532
1781548223889543,155506913,-0.6031588912010193,-0.4895864725112915,0.3256506025791168,-0.5389399528503418,9.136488914489746,2.3555405139923096,3.1869430541992188,-1.5242886543273926,0.7037408947944641,1.394336223602295
1781548223917660,155523580,-0.6033943295478821,-0.4891262352466583,0.3260006308555603,-0.5388830304145813,9.192875862121582,2.326368808746338,3.164801597595215,-3.521388053894043,0.8068705797195435,1.669788122177124
1781548223919171,155540247,-0.6035438179969788,-0.48874714970588684,0.32617783546447754,-0.538952112197876,9.148749351501465,2.2710764408111572,3.1522583961486816,-2.405250072479248,1.3427009582519531,1.6025545597076416
1781548223947747,155556914,-0.6033580303192139,-0.4887780547142029,0.3260403573513031,-0.5392151474952698,9.099522590637207,2.2690696716308594,3.1403467655181885,2.2455103397369385,1.0867406129837036,1.747266411781311
1781548223977644,155573581,-0.6028372645378113,-0.4891975224018097,0.3256201446056366,-0.5396709442138672,9.129133224487305,2.3390119075775146,3.133190393447876,6.461656093597412,0.7150105834007263,1.966460108757019
1781548223980190,155590248,-0.602239191532135,-0.4896831810474396,0.3251935839653015,-0.5401552319526672,9.189221382141113,2.4698338508605957,3.1991071701049805,6.936514854431152,0.38116180896759033,2.152984619140625
1781548224007595,155606915,-0.6021015048027039,-0.4896089732646942,0.3252064883708954,-0.5403681993484497,9.252283096313477,2.5313448905944824,3.2623610496520996,0.8821078538894653,0.7700522541999817,2.068859338760376
1781548224009843,155623582,-0.6023904085159302,-0.48902904987335205,0.32566240429878235,-0.5402967929840088,9.289770126342773,2.4585506916046143,3.246736526489258,-4.873175144195557,0.8254653811454773,1.9474554061889648
1781548224038137,155640249,-0.6028019189834595,-0.48828768730163574,0.32616594433784485,-0.5402044057846069,9.26180648803711,2.3972887992858887,3.1398673057556152,-6.128210544586182,1.444754958152771,1.9444842338562012
1781548224039175,155656916,-0.6032700538635254,-0.4875629246234894,0.32662755250930786,-0.5400576591491699,9.18932819366455,2.309377670288086,3.147116184234619,-6.037387847900391,1.5465655326843262,1.3902000188827515
1781548224067615,155673583,-0.6037203073501587,-0.48685571551322937,0.3271633982658386,-0.5398682355880737,9.155234336853027,2.2267401218414307,3.154909610748291,-6.2365007400512695,0.9998366236686707,1.5031646490097046
1781548224069580,155690250,-0.6039026975631714,-0.48643097281455994,0.3274044394493103,-0.5399008989334106,9.14801025390625,2.1745543479919434,3.1579294204711914,-2.9210901260375977,1.228826880455017,1.6794697046279907
1781548224097689,155706917,-0.6038278937339783,-0.4863376319408417,0.3273036479949951,-0.5401297807693481,9.126508712768555,2.213732957839966,3.165684461593628,1.2915010452270508,1.562073826789856,1.6489391326904297
1781548224128305,155723584,-0.6036543250083923,-0.48639246821403503,0.3270983099937439,-0.5403985977172852,9.115639686584473,2.260240077972412,3.154533863067627,2.65818190574646,1.342431902885437,1.4794342517852783
1781548224132379,155740251,-0.6035217046737671,-0.4864580035209656,0.326986700296402,-0.5405553579330444,9.092337608337402,2.2984752655029297,3.1565418243408203,2.0946130752563477,0.6636954545974731,1.1950052976608276
1781548224159040,155756918,-0.6034061908721924,-0.48652932047843933,0.32690921425819397,-0.5406669974327087,9.137245178222656,2.2687277793884277,3.1659388542175293,1.3548285961151123,0.2679152488708496,0.8829402923583984
1781548224160178,155773585,-0.6031391620635986,-0.486799031496048,0.3266615569591522,-0.540871798992157,9.152594566345215,2.2794933319091797,3.137756586074829,3.5424864292144775,0.21237412095069885,0.8231986165046692
1781548224187973,155790252,-0.6027654409408569,-0.48714977502822876,0.32632166147232056,-0.5411776304244995,9.162941932678223,2.353950023651123,3.1995761394500732,4.771050453186035,0.38278821110725403,1.1368005275726318
1781548224190234,155806919,-0.6025938391685486,-0.4872489869594574,0.32617712020874023,-0.5413665175437927,9.224205017089844,2.422757387161255,3.2031655311584473,2.284069776535034,0.6264033317565918,1.1939038038253784
1781548224218286,155823586,-0.6027284264564514,-0.48701047897338867,0.3263731002807617,-0.5413129925727844,9.251989364624023,2.4092981815338135,3.227985143661499,-1.9621120691299438,0.3447149693965912,0.9448333382606506
1781548224220844,155840253,-0.6030489206314087,-0.486590176820755,0.32677653431892395,-0.5410909056663513,9.254166603088379,2.332087755203247,3.2086305618286133,-4.438360691070557,0.026797285303473473,0.6741070747375488
1781548224247835,155856920,-0.6033033728599548,-0.48622825741767883,0.32711780071258545,-0.5409263968467712,9.225931167602539,2.2763960361480713,3.191718578338623,-3.643099546432495,0.1050184816122055,0.809777557849884
1781548224278073,155873587,-0.6034654974937439,-0.48598089814186096,0.3272307813167572,-0.5408995151519775,9.155755996704102,2.2270419597625732,3.1893651485443115,-1.5739260911941528,0.9096031188964844,0.7460018396377563
1781548224279475,155890254,-0.6033247709274292,-0.4861268997192383,0.32709160447120667,-0.5410095453262329,9.154301643371582,2.2183377742767334,3.1717865467071533,2.3100030422210693,0.26783841848373413,0.7114760279655457
1781548224307957,155906921,-0.6029409766197205,-0.4864782989025116,0.32671549916267395,-0.5413484573364258,9.1841402053833,2.297734022140503,3.1908092498779297,5.189306735992432,0.6589316129684448,1.248805046081543
1781548224310041,155923588,-0.602680504322052,-0.4866373538970947,0.3264247477054596,-0.5416709780693054,9.155794143676758,2.3764655590057373,3.233776092529297,4.105543613433838,1.3641005754470825,1.603489637374878
1781548224338639,155940255,-0.6026239395141602,-0.4865473806858063,0.32640308141708374,-0.5418277382850647,9.147018432617188,2.4032506942749023,3.266329288482666,0.4221164882183075,0.9308999180793762,1.4148390293121338
1781548224339850,155956922,-0.6027348637580872,-0.4863237738609314,0.32651060819625854,-0.5418404936790466,9.144179344177246,2.3649351596832275,3.2392311096191406,-1.4230797290802002,0.8055513501167297,0.9503269195556641
1781548224368392,155973589,-0.6028863787651062,-0.48611804842948914,0.326616108417511,-0.5417927503585815,9.136800765991211,2.3391003608703613,3.1957006454467773,-1.1104000806808472,0.7619585394859314,0.6727623343467712
1781548224369060,155990256,-0.6030266284942627,-0.4858669638633728,0.3268088400363922,-0.5417456030845642,9.130669593811035,2.2978906631469727,3.1807234287261963,-1.9407895803451538,0.4567064642906189,0.9888231754302979
1781548224397791,156006923,-0.6031665205955505,-0.48552197217941284,0.3271116316318512,-0.5417166948318481,9.139846801757812,2.25657057762146,3.206878423690796,-2.7034971714019775,0.40915647149086,1.6432530879974365
1781548224427542,156023590,-0.6032073497772217,-0.48530492186546326,0.3271845877170563,-0.5418214201927185,9.152572631835938,2.2403392791748047,3.2239716053009033,-0.7113926410675049,1.1025434732437134,1.5021781921386719
1781548224430182,156040257,-0.603158712387085,-0.4853086769580841,0.32712316513061523,-0.5419092178344727,9.157707214355469,2.2609314918518066,3.1670925617218018,0.9834443926811218,0.584014356136322,0.8261951804161072
1781548224457829,156056924,-0.6032364964485168,-0.48520171642303467,0.3272063434123993,-0.5418682098388672,9.176407814025879,2.2792556285858154,3.2161827087402344,-0.6317372918128967,0.2744080722332001,0.5848084092140198
1781548224459798,156073591,-0.6033958792686462,-0.4850305914878845,0.32733485102653503,-0.5417664647102356,9.166820526123047,2.2600502967834473,3.21907639503479,-1.6317211389541626,0.2680817246437073,0.27061739563941956
1781548224487587,156090258,-0.6034100651741028,-0.48500704765319824,0.3273220956325531,-0.5417792201042175,9.164027214050293,2.2071778774261475,3.1903703212738037,0.06721413135528564,0.3142998516559601,0.42137372493743896
1781548224490305,156106925,-0.6030946373939514,-0.48538389801979065,0.32703372836112976,-0.5419672727584839,9.208157539367676,2.234745979309082,3.148198127746582,4.4898362159729,-0.1315852552652359,0.6387103199958801
1781548224518207,156123592,-0.6025916934013367,-0.485927939414978,0.32656770944595337,-0.5423199534416199,9.211071968078613,2.3458495140075684,3.235534429550171,6.639151573181152,0.06046518310904503,0.9829193949699402
1781548224519867,156140259,-0.6023311614990234,-0.48614951968193054,0.3263954818248749,-0.5425145626068115,9.225083351135254,2.4304094314575195,3.2672107219696045,3.421632766723633,0.15568040311336517,1.2588707208633423
1781548224548509,156156926,-0.602507472038269,-0.4858585596084595,0.326658695936203,-0.5424209237098694,9.21011734008789,2.4320924282073975,3.29429292678833,-2.4912960529327393,0.26671144366264343,1.0210567712783813
1781548224578131,156173593,-0.6029337048530579,-0.4853074550628662,0.3271424472332001,-0.5421493649482727,9.153478622436523,2.312217950820923,3.229414224624634,-5.658946514129639,0.2814771831035614,0.661953866481781
1781548224579177,156190260,-0.6033573150634766,-0.48479461669921875,0.327521950006485,-0.5419076085090637,9.11709213256836,2.2224292755126953,3.213289499282837,-5.072941303253174,0.6553073525428772,0.34864646196365356
1781548224608160,156206927,-0.6035704016685486,-0.4845759868621826,0.32765889167785645,-0.5417828559875488,9.12511920928955,2.1538288593292236,3.163051128387451,-1.8556783199310303,0.5138996243476868,0.19219127297401428
1781548224609336,156223594,-0.6034683585166931,-0.48468759655952454,0.32750752568244934,-0.5418882966041565,9.160544395446777,2.1975507736206055,3.1614222526550293,1.9189739227294922,0.477375864982605,0.5344921946525574
1781548224667670,156240261,-0.6030887365341187,-0.4850630462169647,0.327118843793869,-0.5422095656394958,9.155730247497559,2.2684051990509033,3.1745660305023193,5.391774654388428,0.5938752889633179,1.1081784963607788
1781548224670467,156256928,-0.6027348637580872,-0.48538127541542053,0.32683324813842773,-0.5424903631210327,9.14919376373291,2.3539552688598633,3.2577037811279297,4.576445579528809,0.2989450693130493,1.3107621669769287
1781548224671801,156273595,-0.6026625633239746,-0.4854111075401306,0.3268459141254425,-0.5425363183021545,9.16576862335205,2.3724894523620605,3.2690539360046387,0.745028555393219,-0.02670123800635338,0.9115622639656067
1781548224697720,156290262,-0.6028149724006653,-0.48520568013191223,0.32702046632766724,-0.542445719242096,9.18731689453125,2.3156511783599854,3.246523380279541,-1.8310518264770508,0.24405701458454132,0.5966157913208008
1781548224699928,156306929,-0.6029981374740601,-0.4849800765514374,0.3271878659725189,-0.5423429012298584,9.168039321899414,2.265625,3.222611427307129,-2.001991033554077,0.38158437609672546,0.4587298035621643
1781548224728092,156323596,-0.6030710339546204,-0.4848846197128296,0.3272804915904999,-0.5422914624214172,9.157933235168457,2.255964756011963,3.1956093311309814,-0.8326047658920288,0.09648943692445755,0.4951639175415039
1781548224730167,156340263,-0.6030797958374023,-0.4848807752132416,0.3273122310638428,-0.5422659516334534,9.194202423095703,2.2417666912078857,3.1839511394500732,0.154886394739151,-0.022974589839577675,0.46978169679641724
1781548224758130,156356930,-0.603081226348877,-0.4848625361919403,0.32735583186149597,-0.5422542691230774,9.239181518554688,2.2557642459869385,3.1900949478149414,0.17729750275611877,0.02823159284889698,0.6501975655555725
1781548224759124,156373597,-0.6030802130699158,-0.4848119020462036,0.3273479640483856,-0.5423054099082947,9.202926635742188,2.2652227878570557,3.212111473083496,0.23807646334171295,0.5303046107292175,0.771384060382843
1781548224787604,156390264,-0.602964460849762,-0.4849364459514618,0.32721975445747375,-0.5424002408981323,9.135374069213867,2.2921199798583984,3.2411186695098877,1.9031963348388672,0.26540517807006836,0.5879586935043335
1781548224789698,156406931,-0.6027858853340149,-0.4851246178150177,0.32708263397216797,-0.5425128936767578,9.143135070800781,2.3145699501037598,3.262361526489258,2.4690451622009277,-0.011410458013415337,0.7304294109344482
1781548224817688,156423598,-0.602660059928894,-0.4852561950683594,0.32700231671333313,-0.5425836443901062,9.171767234802246,2.3299319744110107,3.266052007675171,1.9120324850082397,-0.017826437950134277,0.7310952544212341
1781548224819786,156440265,-0.602775514125824,-0.4850671887397766,0.3270518183708191,-0.5425944924354553,9.185615539550781,2.320828676223755,3.3047096729278564,-0.8882100582122803,0.9706892967224121,0.7198641896247864
1781548224847676,156456932,-0.6030519008636475,-0.4847396910190582,0.3272843658924103,-0.542439877986908,9.242137908935547,2.281747341156006,3.254446506500244,-3.0631251335144043,0.53609299659729,0.3524499535560608
1781548224877527,156473599,-0.6031807661056519,-0.4845372140407562,0.3273983895778656,-0.5424087643623352,9.239396095275879,2.2443840503692627,3.1744823455810547,-1.4176372289657593,0.6205765008926392,0.710579514503479
1781548224879463,156490266,-0.603203296661377,-0.4844948351383209,0.32728683948516846,-0.5424887537956238,9.18869686126709,2.2665135860443115,3.180980920791626,0.7110533714294434,1.094052791595459,0.46162405610084534
1781548224908911,156506933,-0.6032816767692566,-0.48442429304122925,0.3273063600063324,-0.5424528121948242,9.162381172180176,2.3178255558013916,3.244896173477173,-0.27971628308296204,0.4103090465068817,0.2941938638687134
1781548224910458,156523600,-0.6033896207809448,-0.484266459941864,0.3273894786834717,-0.5424235463142395,9.159245491027832,2.3028645515441895,3.2574563026428223,-1.2749873399734497,0.48427850008010864,0.5121066570281982
1781548224938247,156540267,-0.603513777256012,-0.48405689001083374,0.3274995684623718,-0.542405903339386,9.122699737548828,2.2676146030426025,3.22755765914917,-1.3258411884307861,0.7125388383865356,0.8068192005157471
1781548224941410,156556934,-0.6036596298217773,-0.48381921648979187,0.327701598405838,-0.5423336029052734,9.15234661102295,2.2259232997894287,3.2325589656829834,-2.0269763469696045,0.2916838526725769,0.8522690534591675
1781548224968130,156573601,-0.6037447452545166,-0.48371464014053345,0.32775554060935974,-0.5422996282577515,9.15181827545166,2.2071518898010254,3.1892824172973633,-0.6429683566093445,0.39841192960739136,0.4424017369747162
1781548224969977,156590268,-0.6037402153015137,-0.48381519317626953,0.32764413952827454,-0.5422824025154114,9.129682540893555,2.235661029815674,3.195493698120117,1.3847311735153198,0.22808746993541718,-0.08838941901922226
1781548224997942,156606935,-0.6037197113037109,-0.4839765131473541,0.3274883031845093,-0.5422554612159729,9.171346664428711,2.262673854827881,3.228339433670044,1.9851441383361816,0.1551937460899353,-0.3022042214870453
1781548225028834,156623602,-0.6036633253097534,-0.4841021001338959,0.3273770809173584,-0.5422731041908264,9.21243667602539,2.275481939315796,3.220679521560669,1.6390652656555176,0.10880914330482483,0.15888196229934692
1781548225030904,156640269,-0.6035563945770264,-0.48419389128685,0.3272528648376465,-0.5423853397369385,9.20058822631836,2.303459882736206,3.246140956878662,1.8261148929595947,0.4647616147994995,0.7377161383628845
1781548225057648,156656936,-0.603496789932251,-0.48426705598831177,0.3271445631980896,-0.5424516201019287,9.19869327545166,2.3494842052459717,3.2472457885742188,1.4469445943832397,0.4262145161628723,0.4714337885379791
1781548225060085,156673603,-0.6035970449447632,-0.48418235778808594,0.32725945115089417,-0.5423464775085449,9.234569549560547,2.351750135421753,3.249506950378418,-1.0747215747833252,-0.1508459746837616,0.2224911004304886
1781548225087842,156690270,-0.6037502884864807,-0.4840431213378906,0.3274206817150116,-0.5422027707099915,9.26046371459961,2.322331428527832,3.244314432144165,-1.616263747215271,-0.11909905076026917,0.1835341900587082
1781548225089798,156706937,-0.6039647459983826,-0.4837806820869446,0.3275458514690399,-0.542122483253479,9.190988540649414,2.294914960861206,3.264732837677002,-2.2500500679016113,0.7903247475624084,0.3087034821510315
1781548225118366,156723604,-0.6043233871459961,-0.4834074079990387,0.32782241702079773,-0.5418887734413147,9.133373260498047,2.2306535243988037,3.2672955989837646,-3.9579951763153076,0.42406314611434937,-0.06455682218074799
1781548225120721,156740271,-0.604513943195343,-0.48325881361961365,0.32797008752822876,-0.5417188405990601,9.147732734680176,2.1700189113616943,3.2066869735717773,-1.7879968881607056,-0.03127310425043106,-0.08972127735614777
1781548225147749,156756938,-0.604330837726593,-0.48348313570022583,0.327654093503952,-0.5419144630432129,9.13386058807373,2.1986708641052246,3.2040867805480957,3.5180389881134033,0.8703387975692749,0.42780256271362305
1781548225178805,156773605,-0.6040060520172119,-0.48383626341819763,0.32719823718070984,-0.5422368049621582,9.115863800048828,2.310093641281128,3.241102933883667,5.335772514343262,1.0745362043380737,0.728790283203125
1781548225179375,156790272,-0.6038088202476501,-0.48408645391464233,0.3270075023174286,-0.5423480272293091,9.152435302734375,2.3855552673339844,3.291241407394409,3.0931501388549805,-0.04007107391953468,0.5153467655181885
1781548225207804,156806939,-0.6038137078285217,-0.48407214879989624,0.3270476758480072,-0.5423310995101929,9.195380210876465,2.3973355293273926,3.2738139629364014,0.14370645582675934,0.008714721538126469,0.5827337503433228
1781548225209606,156823606,-0.6039760708808899,-0.4838337302207947,0.3271913528442383,-0.5422763228416443,9.185900688171387,2.362967014312744,3.2418928146362305,-1.8355339765548706,0.6293488144874573,0.6685106158256531
1781548225237822,156840273,-0.6042214632034302,-0.4835089147090912,0.3274511694908142,-0.542136013507843,9.170134544372559,2.3018813133239746,3.232405662536621,-2.879892110824585,0.4247545897960663,0.659238874912262
1781548225239812,156856940,-0.604516327381134,-0.4831594228744507,0.3277786672115326,-0.541921079158783,9.194787979125977,2.248732328414917,3.2532031536102295,-3.3760480880737305,0.14587073028087616,0.5110437870025635
1781548225269992,156873607,-0.6047743558883667,-0.4828563928604126,0.3279426395893097,-0.541803777217865,9.16625690460205,2.197551727294922,3.240023612976074,-2.507662534713745,0.8255677223205566,0.3108421266078949
1781548225271569,156890274,-0.6048316359519958,-0.48279815912246704,0.32796531915664673,-0.5417782068252563,9.150459289550781,2.1736223697662354,3.2064383029937744,-0.09388335794210434,0.3515279293060303,0.41721171140670776
1781548225297940,156906941,-0.6045772433280945,-0.48310351371765137,0.3277240991592407,-0.5419360995292664,9.213696479797363,2.2127845287323,3.2281880378723145,3.795809030532837,-0.011999551206827164,0.6274151802062988
1781548225328691,156923608,-0.6041660308837891,-0.48356810212135315,0.32724061608314514,-0.54227215051651,9.21101188659668,2.33488130569458,3.2823877334594727,6.150717258453369,0.6075140833854675,0.7417886257171631
1781548225329692,156940275,-0.6039738059043884,-0.4837469458580017,0.32699084281921387,-0.5424774289131165,9.166816711425781,2.411841869354248,3.3156509399414062,3.137049913406372,0.7766987085342407,0.8267715573310852
1781548225357511,156956942,-0.6042178869247437,-0.48341622948646545,0.327319860458374,-0.5423020720481873,9.164334297180176,2.377856492996216,3.292785167694092,-3.341035842895508,0.01420864462852478,0.7247817516326904
1781548225359600,156973609,-0.6046127080917358,-0.48293161392211914,0.32776233553886414,-0.5420265793800354,9.167224884033203,2.2499923706054688,3.225451707839966,-5.032025337219238,0.14654949307441711,0.5044870376586914
1781548225387536,156990276,-0.6048212051391602,-0.48273295164108276,0.3279114067554474,-0.5418803691864014,9.16103458404541,2.192366361618042,3.2021825313568115,-1.8121241331100464,0.3175910711288452,0.12740395963191986
1781548225389674,157006943,-0.6048259735107422,-0.4827783703804016,0.32784757018089294,-0.5418734550476074,9.158137321472168,2.1803462505340576,3.229703187942505,0.8456224799156189,0.26212677359580994,0.1605852246284485
1781548225417545,157023610,-0.6046096086502075,-0.4830833375453949,0.32755061984062195,-0.5420227646827698,9.155288696289062,2.2136168479919434,3.2587404251098633,3.7797751426696777,0.2597320079803467,0.23970288038253784
1781548225419435,157040277,-0.6043223142623901,-0.4834234416484833,0.3272586762905121,-0.5422161817550659,9.149849891662598,2.308823585510254,3.2633113861083984,4.309957504272461,0.1113319993019104,0.6486479640007019
1781548225447766,157056944,-0.6042225360870361,-0.4835057258605957,0.32719653844833374,-0.5422912836074829,9.15068244934082,2.3469643592834473,3.294840097427368,1.43039870262146,0.1310281604528427,0.7805021405220032
1781548225477968,157073611,-0.6043488383293152,-0.4833327829837799,0.32734155654907227,-0.5422172546386719,9.161858558654785,2.323638439178467,3.2927846908569336,-1.40440833568573,0.2559540867805481,0.610228955745697
1781548225479901,157090278,-0.6046050786972046,-0.48306208848953247,0.327486127614975,-0.5420855283737183,9.165868759155273,2.264824628829956,3.2218053340911865,-2.4593827724456787,0.7007187008857727,0.0743088498711586
1781548225508559,157106945,-0.6047395467758179,-0.4829988181591034,0.3275523781776428,-0.5419518947601318,9.174358367919922,2.2296526432037354,3.2149853706359863,-0.8855079412460327,-0.022180600091814995,-0.20127741992473602
1781548225510286,157123612,-0.6046955585479736,-0.4831344485282898,0.32749247550964355,-0.5419163703918457,9.207747459411621,2.2398409843444824,3.242790699005127,1.2994025945663452,-0.2967103123664856,0.031522829085588455
1781548225538792,157140279,-0.6044626235961914,-0.4834761619567871,0.32721054553985596,-0.5420417189598083,9.176742553710938,2.2742714881896973,3.268739700317383,3.9039196968078613,-0.049496542662382126,0.1785525232553482
1781548225539930,157156946,-0.6042590141296387,-0.48372188210487366,0.32695236802101135,-0.5422053337097168,9.154197692871094,2.3355917930603027,3.3508565425872803,3.1945888996124268,0.35059309005737305,0.4497910737991333
1781548225568537,157173613,-0.6042510271072388,-0.4837498664855957,0.3269129693508148,-0.5422128438949585,9.15428352355957,2.3458526134490967,3.3242270946502686,0.8826199769973755,0.27540692687034607,0.43177247047424316
1781548225570331,157190280,-0.6042861938476562,-0.4836360514163971,0.3270072042942047,-0.5422183871269226,9.184060096740723,2.3260064125061035,3.2865335941314697,-0.7292447090148926,0.24578584730625153,0.8949652910232544
1781548225598639,157206947,-0.604347825050354,-0.48355022072792053,0.3270179033279419,-0.5422197580337524,9.184905052185059,2.3208084106445312,3.261644124984741,-0.1850133240222931,0.5873183608055115,0.5132336616516113
1781548225628604,157223614,-0.6044911742210388,-0.48344627022743225,0.3270335793495178,-0.5421431660652161,9.155728340148926,2.3057847023010254,3.2619669437408447,-0.6923368573188782,0.5668794512748718,-0.046435821801424026
1781548225630480,157240281,-0.6047648191452026,-0.4831973612308502,0.3271738290786743,-0.5419751405715942,9.152210235595703,2.2790486812591553,3.252023220062256,-2.4133694171905518,0.5748194456100464,-0.17848210036754608
1781548225658311,157256948,-0.6049460172653198,-0.4830023944377899,0.3273041844367981,-0.5418681502342224,9.163806915283203,2.237513780593872,3.238760232925415,-1.7120554447174072,0.4087466895580292,0.26511067152023315
1781548225659260,157273615,-0.6049817800521851,-0.48293545842170715,0.3272612690925598,-0.5419138073921204,9.156585693359375,2.235197067260742,3.2346103191375732,0.2604747414588928,0.8239284753799438,0.5665080547332764
1781548225688366,157290282,-0.6049447059631348,-0.48294827342033386,0.32716959714889526,-0.541999101638794,9.142988204956055,2.2705655097961426,3.2179582118988037,0.9631336331367493,0.6620947122573853,0.6123292446136475
1781548225689600,157306949,-0.6048147082328796,-0.4830741882324219,0.3270682692527771,-0.5420931577682495,9.132035255432129,2.2922496795654297,3.2334930896759033,1.9052966833114624,0.1280570775270462,0.7462835907936096
1781548225718928,157323616,-0.6046430468559265,-0.48327791690826416,0.32693904638290405,-0.5421809554100037,9.178544044494629,2.326380729675293,3.251023054122925,2.485910654067993,-0.15367619693279266,0.6173365116119385
1781548225720714,157340283,-0.6045656800270081,-0.48339274525642395,0.32688993215560913,-0.5421946048736572,9.169466018676758,2.332165241241455,3.3247578144073486,1.3476828336715698,-0.18679343163967133,0.42810991406440735
1781548225747869,157356950,-0.6047797203063965,-0.483190655708313,0.32701292634010315,-0.5420618057250977,9.141624450683594,2.3012750148773193,3.352470636367798,-1.8750032186508179,0.45545142889022827,0.028372466564178467
1781548225778395,157373617,-0.6050519943237305,-0.48289769887924194,0.3271925449371338,-0.5419106483459473,9.169530868530273,2.235597610473633,3.263684034347534,-2.7302756309509277,0.6208070516586304,0.11746623367071152
1781548225780099,157390284,-0.6050052642822266,-0.4829753339290619,0.32705315947532654,-0.5419778227806091,9.164834976196289,2.233487129211426,3.202667474746704,1.4160045385360718,0.5405880212783813,0.2739214301109314
1781548225808449,157406951,-0.6048903465270996,-0.4831404685974121,0.3268182575702667,-0.5421004295349121,9.159110069274902,2.3210315704345703,3.2385494709014893,2.6779420375823975,0.6905503869056702,0.31118786334991455
1781548225810610,157423618,-0.6049308180809021,-0.48316678404808044,0.32676899433135986,-0.5420615673065186,9.175982475280762,2.3728885650634766,3.292252779006958,0.4878130257129669,0.23828133940696716,-0.02570234052836895
1781548225838400,157440285,-0.6050836443901062,-0.48307004570961,0.3269142508506775,-0.5418896675109863,9.206418991088867,2.3462917804718018,3.2692344188690186,-1.4417004585266113,-0.3066096305847168,-0.08187098801136017
1781548225839510,157456952,-0.605317234992981,-0.4828062951564789,0.32712244987487793,-0.5417382717132568,9.201385498046875,2.303372859954834,3.2323124408721924,-2.550218343734741,0.31363391876220703,0.3013654351234436
1781548225868410,157473619,-0.6055076122283936,-0.4825820326805115,0.32733121514320374,-0.5415990948677063,9.165925025939941,2.2295289039611816,3.1925125122070312,-2.419222116470337,0.057673390954732895,0.35699620842933655
1781548225870061,157490286,-0.6056021451950073,-0.4825296401977539,0.32745856046676636,-0.5414631366729736,9.18592357635498,2.1824870109558105,3.208918809890747,-0.9749473929405212,-0.42335227131843567,0.10409639775753021
1781548225897923,157506953,-0.6055430769920349,-0.48272034525871277,0.32729092240333557,-0.5414605140686035,9.218222618103027,2.1972007751464844,3.2081384658813477,1.8567858934402466,-0.02504921890795231,-0.32562699913978577
1781548225927732,157523620,-0.6053400039672852,-0.4830726087093353,0.32679644227027893,-0.5416721105575562,9.224934577941895,2.2549402713775635,3.209527015686035,5.062459468841553,1.208682656288147,-0.22087112069129944
1781548225930172,157540287,-0.6049823760986328,-0.4835420250892639,0.32618704438209534,-0.5420202016830444,9.174221992492676,2.366276741027832,3.2797179222106934,6.483221530914307,1.2790151834487915,0.16701403260231018
1781548225957603,157556954,-0.6048882007598877,-0.4837314486503601,0.3259356915950775,-0.5421070456504822,9.197563171386719,2.4349136352539062,3.3564467430114746,2.5026745796203613,0.5507307052612305,-0.08902974426746368
1781548225959077,157573621,-0.6050929427146912,-0.48357391357421875,0.32599151134490967,-0.5419858694076538,9.263015747070312,2.3958966732025146,3.3357901573181152,-1.6295057535171509,0.5225695371627808,-0.298644095659256
1781548225989423,157590288,-0.6054574847221375,-0.48316624760627747,0.32603001594543457,-0.5419190526008606,9.190934181213379,2.3430979251861572,3.264554023742676,-2.779310703277588,2.125092029571533,-0.08344616740942001
1781548225990399,157606955,-0.6057379841804504,-0.4828869104385376,0.32603028416633606,-0.5418543815612793,9.09701156616211,2.3058881759643555,3.2675836086273193,-1.762128233909607,1.6388094425201416,-0.15546908974647522
1781548226017618,157623622,-0.6060133576393127,-0.48262321949005127,0.3261515200138092,-0.5417084693908691,9.06271743774414,2.2589330673217773,3.308840036392212,-2.487684726715088,0.7514446377754211,-0.16887733340263367
1781548226019984,157640289,-0.6063231229782104,-0.4823662340641022,0.32625529170036316,-0.5415281653404236,9.042370796203613,2.2105937004089355,3.260094165802002,-2.4823572635650635,0.7888006567955017,-0.477868914604187
1781548226047755,157656956,-0.606427788734436,-0.4823976755142212,0.3261169493198395,-0.5414663553237915,9.08427619934082,2.204331874847412,3.229462146759033,0.4143558442592621,0.6193342804908752,-0.7242119312286377
1781548226078022,157673623,-0.606285810470581,-0.4827299416065216,0.3257260322570801,-0.5415645837783813,9.076804161071777,2.258373260498047,3.2418739795684814,4.008060932159424,0.5853205323219299,-0.5726999640464783
1781548226080205,157690290,-0.6062033176422119,-0.48293307423591614,0.3254881501197815,-0.5416187047958374,9.067028045654297,2.3130362033843994,3.2757856845855713,2.5343573093414307,0.3972209692001343,-0.20533698797225952
1781548226108672,157706957,-0.6061936020851135,-0.48308253288269043,0.32541152834892273,-0.5415424704551697,9.058014869689941,2.314464569091797,3.2447400093078613,1.1468149423599243,-0.35203373432159424,-0.374444842338562
1781548226110474,157723624,-0.6060572266578674,-0.4834121763706207,0.3252585530281067,-0.5414927005767822,9.049883842468262,2.3205714225769043,3.276319980621338,2.6963703632354736,-0.8912450671195984,-0.4369782507419586
1781548226138040,157740291,-0.6058384776115417,-0.483806848526001,0.3250611126422882,-0.5415036678314209,9.088058471679688,2.3717260360717773,3.298231363296509,3.593045473098755,-0.9183816909790039,-0.15295901894569397
1781548226142106,157756958,-0.6056528687477112,-0.484096497297287,0.3249638080596924,-0.5415106415748596,9.122343063354492,2.3794682025909424,3.3132894039154053,2.606854200363159,-0.8975329995155334,0.2551345229148865
1781548226168194,157773625,-0.6055834889411926,-0.4842013120651245,0.3250969648361206,-0.5414147973060608,9.154671669006348,2.380582571029663,3.3207690715789795,0.5266419053077698,-1.2103922367095947,0.6313082575798035
1781548226169464,157790292,-0.6056479215621948,-0.4841672480106354,0.3252548575401306,-0.5412784218788147,9.18583869934082,2.389556646347046,3.329986810684204,-0.9393712878227234,-0.6977923512458801,0.26792803406715393
1781548226198247,157806959,-0.6058096885681152,-0.48404303193092346,0.3254837095737457,-0.5410706400871277,9.178757667541504,2.3677380084991455,3.2890775203704834,-1.9940897226333618,-0.660077691078186,0.07008276134729385
1781548226228566,157823626,-0.6059352159500122,-0.4839679002761841,0.3256447911262512,-0.540900468826294,9.179882049560547,2.340738296508789,3.3113389015197754,-1.4427504539489746,-0.5444619059562683,-0.013882082886993885
1781548226229102,157840293,-0.605919361114502,-0.4840395450592041,0.3256849944591522,-0.5408298373222351,9.235301971435547,2.310912847518921,3.2814488410949707,0.4321567118167877,-0.5420799851417542,0.2383197844028473
1781548226258416,157856960,-0.605721116065979,-0.4842284917831421,0.3255823850631714,-0.5409446358680725,9.260059356689453,2.3628053665161133,3.282200336456299,2.526404857635498,-0.1613600105047226,0.9692806005477905
1781548226259255,157873627,-0.6055324673652649,-0.48426157236099243,0.32555481791496277,-0.5411427021026611,9.281755447387695,2.423768997192383,3.2808163166046143,1.7699847221374512,0.4084392786026001,1.8849345445632935
1781548226287589,157890294,-0.6055492758750916,-0.48404237627983093,0.3257351219654083,-0.5412113666534424,9.288796424865723,2.472660541534424,3.2977097034454346,-1.1504839658737183,0.48052626848220825,1.7961739301681519
1781548226289765,157906961,-0.6058849096298218,-0.4835420846939087,0.32622045278549194,-0.5409907102584839,9.25853157043457,2.426957368850708,3.283331871032715,-5.089218616485596,0.02683570794761181,1.0768028497695923
1781548226318544,157923628,-0.606388509273529,-0.4829179346561432,0.3267975151538849,-0.5406357049942017,9.22897720336914,2.312291145324707,3.2207601070404053,-6.834352970123291,0.028013894334435463,0.46537643671035767
1781548226319172,157940295,-0.6067710518836975,-0.48239830136299133,0.3271685838699341,-0.540445864200592,9.133441925048828,2.1958935260772705,3.2388572692871094,-4.803354263305664,0.7890312671661377,0.7051496505737305
1781548226347709,157956962,-0.6068729758262634,-0.48214954137802124,0.32725194096565247,-0.5405029654502869,9.077836036682129,2.190199375152588,3.243574380874634,-1.230818271636963,1.1426401138305664,1.1736570596694946
1781548226380044,157973629,-0.6068860292434692,-0.4820297956466675,0.3272341191768646,-0.5406058430671692,9.065841674804688,2.2137820720672607,3.232161045074463,0.17371173202991486,1.0602058172225952,1.103235125541687
1781548226382013,157990296,-0.6069332361221313,-0.48196208477020264,0.3271506130695343,-0.5406637191772461,9.06398868560791,2.28271746635437,3.2074837684631348,0.4230513870716095,1.0687860250473022,0.45309507846832275
1781548226408176,158006963,-0.6070678234100342,-0.48190948367118835,0.3271386921405792,-0.5405667424201965,9.08023738861084,2.2904069423675537,3.1920905113220215,-0.3712560534477234,0.40971991419792175,-0.2970432639122009
1781548226409981,158023630,-0.6072458028793335,-0.4818587899208069,0.3271641433238983,-0.5403966903686523,9.079957962036133,2.263092517852783,3.1832339763641357,-0.7837357521057129,0.10819444060325623,-0.63536137342453
1781548226437638,158040297,-0.607288122177124,-0.4819466173648834,0.3271520733833313,-0.5402779579162598,9.090182304382324,2.213085651397705,3.1539535522460938,0.393545538187027,-0.4108533263206482,-0.3896203637123108
1781548226439185,158056964,-0.6070547699928284,-0.48231494426727295,0.32695484161376953,-0.5403307676315308,9.094452857971191,2.224388599395752,3.207082748413086,3.518935441970825,-0.7394770383834839,0.09531126916408539
1781548226497401,158073631,-0.6065856218338013,-0.482940673828125,0.32656043767929077,-0.5405375957489014,9.122910499572754,2.30210018157959,3.2366905212402344,6.509973526000977,-0.8781314492225647,0.40096044540405273
1781548226498634,158090298,-0.6060821413993835,-0.4835900068283081,0.3261857032775879,-0.5407479405403137,9.15865421295166,2.4103403091430664,3.269366502761841,6.621005535125732,-1.1231043338775635,0.5420352220535278
1781548226500489,158106965,-0.6058120727539062,-0.48396366834640503,0.3260667324066162,-0.540787935256958,9.188076972961426,2.4782233238220215,3.2938029766082764,3.406982183456421,-1.1950629949569702,0.44766518473625183
1781548226527419,158123632,-0.6059028506278992,-0.48389142751693726,0.32627660036087036,-0.54062420129776,9.229702949523926,2.4639854431152344,3.3269879817962646,-1.4577980041503906,-0.8077477216720581,0.3082936704158783
1781548226529157,158140299,-0.606192946434021,-0.4836059808731079,0.326582133769989,-0.5403700470924377,9.223896026611328,2.3900208473205566,3.29015851020813,-3.3826565742492676,-0.22098638117313385,0.0507451631128788
1781548226557997,158156966,-0.6064473986625671,-0.4833415150642395,0.32679593563079834,-0.5401917695999146,9.233297348022461,2.3044612407684326,3.2910573482513428,-2.7571816444396973,0.2326081246137619,0.11672346293926239
1781548226560436,158173633,-0.606643795967102,-0.4831015169620514,0.326938271522522,-0.5400997400283813,9.216211318969727,2.2716431617736816,3.2998127937316895,-1.9336562156677246,0.612956702709198,0.424831360578537
1781548226588818,158190300,-0.6067197322845459,-0.48297154903411865,0.32689639925956726,-0.5401559472084045,9.190995216369629,2.2579307556152344,3.2500882148742676,-0.08901694416999817,1.187334418296814,0.6187452077865601
1781548226590853,158206967,-0.6066218018531799,-0.4830813705921173,0.3266158103942871,-0.5403375625610352,9.155452728271484,2.3111231327056885,3.2595832347869873,2.6112849712371826,1.3063052892684937,0.44023746252059937
1781548226618141,158223634,-0.6065468788146973,-0.48318395018577576,0.32635340094566345,-0.5404885411262512,9.13893985748291,2.3617162704467773,3.3321259021759033,2.448465347290039,1.2271876335144043,0.33199822902679443
1781548226619975,158240301,-0.6066438555717468,-0.48310965299606323,0.32612311840057373,-0.5405851602554321,9.16256332397461,2.3835034370422363,3.315608024597168,0.8134273290634155,1.9346873760223389,-0.05938304588198662
1781548226647873,158256968,-0.6068705320358276,-0.48291534185409546,0.32595354318618774,-0.5406067967414856,9.224885940551758,2.391169548034668,3.3093106746673584,-0.5114344358444214,2.1687874794006348,-0.3835117518901825
1781548226678019,158273635,-0.6073251962661743,-0.4824744164943695,0.32600638270378113,-0.5404577851295471,9.281011581420898,2.3629708290100098,3.283773183822632,-3.478217363357544,2.10844349861145,-0.6420591473579407
1781548226682053,158290302,-0.6077917814254761,-0.482020765542984,0.3260716497898102,-0.5402987599372864,9.170743942260742,2.2851178646087646,3.225088596343994,-3.642138719558716,2.0971741676330566,-0.6598471403121948
1781548226708150,158306969,-0.6079639196395874,-0.4819289445877075,0.325884610414505,-0.5402997732162476,9.041467666625977,2.2703003883361816,3.223414897918701,0.12637947499752045,1.6739246845245361,-0.5503913164138794
1781548226710371,158323636,-0.6076928377151489,-0.48228004574775696,0.32570675015449524,-0.5403986573219299,9.09408950805664,2.2691378593444824,3.174795150756836,3.5898826122283936,-0.6888023614883423,0.5294593572616577
1781548226738349,158340303,-0.6072126626968384,-0.48281800746917725,0.3255004286766052,-0.5405823588371277,9.093023300170898,2.3657829761505127,3.17414927482605,5.395540237426758,-1.442379355430603,1.1603642702102661
1781548226739721,158356970,-0.6067049503326416,-0.4835687279701233,0.3256250321865082,-0.5404064655303955,9.246720314025879,2.434845209121704,3.198315382003784,4.2964863777160645,-4.880513668060303,0.3687268793582916
1781548226767565,158373637,-0.6061251163482666,-0.48431989550590515,0.32567185163497925,-0.5403561592102051,9.415262222290039,2.4215247631073,3.30342698097229,5.11016321182251,-4.301896572113037,0.9017784595489502
1781548226770289,158390304,-0.6056686043739319,-0.4846671521663666,0.32550570368766785,-0.540656566619873,9.099575996398926,2.450183629989624,3.458047389984131,4.513168811798096,-0.48962515592575073,2.072406530380249
1781548226798301,158406971,-0.6056015491485596,-0.4845997393131256,0.3262791633605957,-0.5403257012367249,9.000984191894531,2.4300737380981445,3.391112804412842,-3.349782943725586,-4.0761847496032715,2.0791304111480713
1781548226828506,158423638,-0.6057042479515076,-0.4844300448894501,0.3272063136100769,-0.539801836013794,9.147871017456055,2.344156503677368,3.346348762512207,-5.367064952850342,-4.603486061096191,1.3786485195159912
1781548226829975,158440305,-0.6056877970695496,-0.48425111174583435,0.32749655842781067,-0.5398048162460327,9.13068962097168,2.292553424835205,3.378661632537842,-1.3735450506210327,-0.40898361802101135,1.9436261653900146
1781548226857837,158456972,-0.6055318117141724,-0.4840996265411377,0.3275017738342285,-0.5401124358177185,9.09162712097168,2.3323347568511963,3.313488245010376,0.9791669845581055,1.3839884996414185,2.7300381660461426
1781548226860188,158473639,-0.6054897904396057,-0.48387274146080017,0.3276493549346924,-0.5402734279632568,9.16463565826416,2.379746437072754,3.2794389724731445,-0.5789110660552979,0.8378874659538269,2.338228225708008
1781548226887901,158490306,-0.6055887341499329,-0.48357266187667847,0.3278588354587555,-0.5403040647506714,9.316840171813965,2.3258070945739746,3.1848301887512207,-1.962483286857605,0.7147928476333618,1.6132351160049438
1781548226889745,158506973,-0.6055102944374084,-0.48345357179641724,0.3276894986629486,-0.5406011939048767,9.207371711730957,2.2290709018707275,3.1937291622161865,1.3785204887390137,2.1036288738250732,1.710883617401123
1781548226919308,158523640,-0.6049948334693909,-0.48395392298698425,0.32719412446022034,-0.5410307049751282,9.006051063537598,2.214353322982788,3.267624616622925,6.9725775718688965,0.6268388032913208,1.4245208501815796
1781548226920863,158540307,-0.6041008830070496,-0.4850102961063385,0.32619813084602356,-0.5416845083236694,8.867785453796387,2.182870864868164,3.30777907371521,12.953969955444336,0.5462359189987183,0.86347496509552
1781548226948334,158556974,-0.6028020977973938,-0.48645487427711487,0.32438352704048157,-0.5429242849349976,8.672966957092285,2.3547236919403076,3.208871841430664,20.265100479125977,3.5424141883850098,1.2000783681869507
1781548226979554,158573641,-0.601057231426239,-0.48829385638237,0.32287701964378357,-0.5441046357154846,8.802712440490723,2.651599645614624,3.1634159088134766,22.121103286743164,-0.397048681974411,2.7743144035339355
1781548226980043,158590308,-0.6002358794212341,-0.48853799700737,0.32277265191078186,-0.5448536276817322,9.156784057617188,2.649322271347046,3.44002366065979,6.309659004211426,0.39838647842407227,5.814974784851074
1781548227008719,158606975,-0.6004135608673096,-0.48686057329177856,0.3241002559661865,-0.5453711748123169,9.024338722229004,2.1374926567077637,3.497865676879883,-10.885930061340332,3.1179707050323486,10.179370880126953
1781548227010540,158623642,-0.5993585586547852,-0.48688235878944397,0.32454195618629456,-0.5462486147880554,8.823225021362305,1.6515995264053345,3.3744852542877197,4.74518346786499,-1.0476880073547363,9.660722732543945
1781548227039083,158640309,-0.5963861346244812,-0.4896599352359772,0.3224126398563385,-0.5482764840126038,9.12562370300293,1.8648213148117065,3.3636059761047363,33.82418441772461,-1.4589948654174805,6.533128261566162
1781548227040564,158656976,-0.5928937196731567,-0.4928196668624878,0.3189960718154907,-0.551223635673523,9.481273651123047,2.5655620098114014,3.3558733463287354,45.01404571533203,4.5627121925354,7.4140167236328125
1781548227068085,158673643,-0.5900565981864929,-0.49435415863990784,0.316150039434433,-0.5545238256454468,9.391587257385254,2.913208484649658,3.578014612197876,34.280052185058594,10.906705856323242,11.698923110961914
1781548227069606,158690310,-0.5875911712646484,-0.49494218826293945,0.3147543966770172,-0.5574036240577698,9.26562213897705,2.67639422416687,3.7186360359191895,22.73410987854004,8.009748458862305,15.564620018005371
1781548227097794,158706977,-0.5847494006156921,-0.49627625942230225,0.3129426836967468,-0.560218870639801,9.520931243896484,2.4803006649017334,3.860262632369995,28.482975006103516,5.796885013580322,13.716449737548828
1781548227128303,158723644,-0.5824946761131287,-0.4975755512714386,0.3099006116390228,-0.5630988478660583,9.62310791015625,2.549248218536377,3.7702410221099854,31.218263626098633,12.361207008361816,7.591808319091797
1781548227131371,158740311,-0.5803104639053345,-0.49934402108192444,0.30527463555336,-0.5663063526153564,9.362396240234375,2.657853126525879,3.4857099056243896,39.68660354614258,18.158342361450195,2.213573455810547
1781548227158900,158756978,-0.5771781206130981,-0.5025604963302612,0.2984352111816406,-0.5702937245368958,9.229696273803711,2.949174404144287,3.614131212234497,58.973697662353516,22.038928985595703,-1.6211272478103638
1781548227159598,158773645,-0.5733409523963928,-0.5071408748626709,0.2901615500450134,-0.5743647217750549,9.118709564208984,3.2495288848876953,3.800976514816284,72.61824798583984,21.224937438964844,-6.279374599456787
1781548227188586,158790312,-0.5687423348426819,-0.5133816003799438,0.2796832323074341,-0.5785748958587646,9.201871871948242,3.6082396507263184,3.8743245601654053,90.80219268798828,22.32526206970215,-13.7217435836792
1781548227189342,158806979,-0.5641196370124817,-0.5204001665115356,0.2666018605232239,-0.5829890370368958,9.229076385498047,4.226800441741943,3.8423824310302734,104.6788330078125,30.082735061645508,-23.510643005371094
1781548227217920,158823646,-0.560689389705658,-0.5271902084350586,0.25261038541793823,-0.5864178538322449,9.137846946716309,4.979485511779785,4.016568183898926,101.36658477783203,33.18959426879883,-34.94729995727539
1781548227219345,158840313,-0.559509813785553,-0.5326461791992188,0.23925870656967163,-0.5882111191749573,9.065229415893555,5.348955154418945,4.170154094696045,82.64482116699219,34.08134841918945,-45.68792724609375
1781548227247650,158856980,-0.5598966479301453,-0.5371646881103516,0.22623907029628754,-0.5888853073120117,8.984915733337402,5.301806449890137,3.9373319149017334,70.11720275878906,35.07390594482422,-53.566925048828125
1781548227278337,158873647,-0.5604802370071411,-0.542037308216095,0.21185939013957977,-0.5892139077186584,8.847545623779297,5.251087665557861,3.6369094848632812,75.7236557006836,37.90553283691406,-61.26519775390625
1781548227279940,158890314,-0.5609286427497864,-0.5474216938018799,0.19650669395923615,-0.5891298055648804,8.815677642822266,5.426969528198242,3.70761775970459,81.54102325439453,37.84760284423828,-66.67779541015625
1781548227308596,158906981,-0.5616782903671265,-0.5526441931724548,0.1805393546819687,-0.5886490345001221,8.783944129943848,5.600517272949219,3.9004149436950684,81.73601531982422,39.78861999511719,-71.52063751220703
1781548227309700,158923648,-0.5627536177635193,-0.5577309727668762,0.1640329360961914,-0.5876545310020447,8.630508422851562,5.848730087280273,3.5577242374420166,81.51924896240234,40.87186813354492,-76.70071411132812
1781548227338183,158940315,-0.5643830895423889,-0.5627920031547546,0.14749042689800262,-0.5856479406356812,8.409419059753418,6.231131076812744,3.1674203872680664,78.29895782470703,37.85954284667969,-82.96369934082031
1781548227342152,158956982,-0.5671045780181885,-0.567192792892456,0.13161565363407135,-0.5825480818748474,8.189653396606445,6.559878826141357,3.302070140838623,67.713623046875,34.80518341064453,-88.34693145751953
1781548227368052,158973649,-0.5705805420875549,-0.5706242322921753,0.11656884849071503,-0.5789974331855774,7.836930274963379,6.702011585235596,3.471162796020508,57.26573944091797,34.38544464111328,-89.01831817626953
1781548227370104,158990316,-0.5750502943992615,-0.5727264285087585,0.10265669971704483,-0.5751203298568726,7.693490982055664,6.970261096954346,3.3301515579223633,43.3746452331543,34.74045181274414,-88.73572540283203
1781548227397925,159006983,-0.5809499621391296,-0.5730431079864502,0.09043966978788376,-0.5709111094474792,7.375838756561279,7.233730792999268,3.119554042816162,23.745655059814453,34.80110549926758,-87.76538848876953
1781548227428567,159023650,-0.5897884964942932,-0.570941686630249,0.08064810186624527,-0.5653948187828064,7.166231632232666,7.197850704193115,3.290931463241577,-7.826076984405518,31.282772064208984,-93.46087646484375
1781548227430125,159040317,-0.6014590263366699,-0.5652815103530884,0.07397608458995819,-0.5596708059310913,7.272946357727051,6.666144371032715,3.373525619506836,-45.61669158935547,33.22135925292969,-91.09310913085938
1781548227458991,159056984,-0.6135067343711853,-0.5580468773841858,0.06862954050302505,-0.5545117855072021,7.091191291809082,5.889345169067383,3.17325496673584,-58.40701675415039,36.186378479003906,-84.25506591796875
1781548227461786,159073651,-0.6252431273460388,-0.5500020980834961,0.06326305121183395,-0.5500608682632446,6.890027046203613,5.210255146026611,3.015807867050171,-60.22052001953125,41.93043518066406,-79.77564239501953
1781548227488839,159090318,-0.6345722079277039,-0.543373703956604,0.05736706033349037,-0.5466007590293884,6.548259258270264,5.130402565002441,2.546903371810913,-42.593448638916016,41.54832458496094,-69.03091430664062
1781548227490340,159106985,-0.6408034563064575,-0.5399147272109985,0.05031513795256615,-0.5434444546699524,6.259955406188965,5.828339576721191,2.526674509048462,-12.72750186920166,34.59419631958008,-61.63155746459961
1781548227520555,159123652,-0.6473157405853271,-0.5366050601005554,0.04440661519765854,-0.539505124092102,6.089574337005615,6.677475929260254,3.0628278255462646,-17.657196044921875,26.190153121948242,-61.938758850097656
1781548227521008,159140319,-0.6573718190193176,-0.529450535774231,0.04172896966338158,-0.5346057415008545,5.959622383117676,6.636883735656738,3.5470731258392334,-60.122276306152344,23.613771438598633,-66.26290130615234
1781548227547802,159156986,-0.6695671677589417,-0.5187510848045349,0.042031820863485336,-0.5299153923988342,5.838275909423828,5.724832534790039,3.5918588638305664,-94.83039855957031,24.54788589477539,-61.316959381103516
1781548227578288,159173653,-0.6803666949272156,-0.5091698169708252,0.04256477206945419,-0.5253908038139343,5.6760358810424805,4.906882286071777,3.287829637527466,-85.4936294555664,19.601287841796875,-54.97087478637695
1781548227579710,159190320,-0.6877604722976685,-0.5046289563179016,0.04107034206390381,-0.5202389359474182,5.860910892486572,4.919939994812012,3.4937355518341064,-42.85093688964844,7.684779167175293,-54.1752815246582
1781548227610039,159206987,-0.6938841342926025,-0.5013586282730103,0.039343077689409256,-0.5153804421424866,5.960055351257324,5.298656463623047,4.6601243019104,-31.520383834838867,4.900889873504639,-49.413368225097656
1781548227610529,159223654,-0.7015040516853333,-0.49491313099861145,0.04089706763625145,-0.5111562013626099,5.381985664367676,4.906998157501221,4.8313374519348145,-63.281307220458984,3.0890352725982666,-39.52072525024414
1781548227638987,159240321,-0.7072885036468506,-0.49129945039749146,0.04286159574985504,-0.5064886808395386,5.621603965759277,4.2115583419799805,4.107298374176025,-44.9429817199707,-10.867366790771484,-34.60789108276367
1781548227639856,159256988,-0.7086900472640991,-0.49367398023605347,0.041444506496191025,-0.5023213028907776,6.1120429039001465,4.5874924659729,4.091427326202393,10.905658721923828,-14.877983093261719,-30.102672576904297
1781548227669286,159273655,-0.7092509865760803,-0.4972623884677887,0.03931901603937149,-0.4981440603733063,6.394440650939941,5.8734941482543945,5.0409464836120605,22.118263244628906,-15.889787673950195,-29.998727798461914
1781548227671009,159290322,-0.7123740315437317,-0.4964747428894043,0.03997364640235901,-0.49440717697143555,6.496502876281738,6.532243728637695,5.568719387054443,-17.38235855102539,-12.260885238647461,-25.939746856689453
1781548227697679,159306989,-0.7177005410194397,-0.49148857593536377,0.04248981550335884,-0.4914669096469879,6.131645679473877,6.195184707641602,5.423152923583984,-51.57676315307617,-3.782013177871704,-22.021902084350586
1781548227728402,159323656,-0.7236546874046326,-0.48494550585746765,0.04577760398387909,-0.48893409967422485,5.986920356750488,5.8128228187561035,5.199380397796631,-63.867557525634766,-0.7684314250946045,-19.07073211669922
1781548227728994,159340323,-0.7305528521537781,-0.47601163387298584,0.05049319565296173,-0.48698657751083374,6.159940242767334,5.735927104949951,5.28645133972168,-83.52628326416016,2.4136416912078857,-13.820258140563965
1781548227757954,159356990,-0.7398864030838013,-0.46147918701171875,0.058052077889442444,-0.4860404133796692,6.119433879852295,5.15263557434082,5.878684997558594,-128.79515075683594,11.000784873962402,-5.697637557983398
1781548227759359,159373657,-0.7486027479171753,-0.44631457328796387,0.06681590527296066,-0.4857292175292969,6.1141252517700195,4.0280561447143555,5.628755569458008,-133.82571411132812,8.751422882080078,3.6691691875457764
1781548227787684,159390324,-0.7535681128501892,-0.43818026781082153,0.0718388631939888,-0.48473966121673584,6.47886323928833,3.778653144836426,5.298447608947754,-73.9418716430664,0.7225033640861511,-2.007638931274414
1781548227790476,159406991,-0.7562589049339294,-0.4355170726776123,0.07252237200737,-0.4828436076641083,6.955618381500244,5.0795769691467285,5.910333156585693,-24.72637939453125,1.118208885192871,-14.901165962219238
1781548227817960,159423658,-0.7602396607398987,-0.4302995204925537,0.0745011568069458,-0.48096534609794617,6.944525241851807,6.2137017250061035,6.902839660644531,-46.1612548828125,3.5607898235321045,-13.940646171569824
1781548227819660,159440325,-0.7673177719116211,-0.41823747754096985,0.08112911880016327,-0.4792904257774353,6.583158016204834,5.5070881843566895,6.748357772827148,-106.37386322021484,4.0821685791015625,-5.8610734939575195
1781548227847779,159456992,-0.7740275263786316,-0.4067266881465912,0.08704109489917755,-0.47736629843711853,6.264761447906494,4.1946821212768555,5.878192901611328,-100.1845703125,5.121243953704834,-8.329778671264648
1781548227877927,159473659,-0.7765170931816101,-0.4042569100856781,0.08968234062194824,-0.4749261736869812,6.302394390106201,3.950582981109619,6.070590019226074,-29.839799880981445,-11.11331844329834,-11.782914161682129
1781548227879525,159490326,-0.777428150177002,-0.40415310859680176,0.0916806310415268,-0.47313907742500305,6.5270233154296875,4.146260738372803,7.120731353759766,-10.318575859069824,-14.564271926879883,-6.390735149383545
1781548227907983,159506993,-0.7796390056610107,-0.4003230929374695,0.09369728714227676,-0.4723615348339081,6.628666400909424,4.240786552429199,7.674661159515381,-33.26913070678711,1.0851054191589355,-2.8235294818878174
1781548227910229,159523660,-0.7813352346420288,-0.39819690585136414,0.0937441810965538,-0.4713456630706787,6.550296306610107,4.9800519943237305,6.806784152984619,-16.474632263183594,5.122565269470215,-8.950572967529297
1781548227937623,159540327,-0.7828907370567322,-0.39745211601257324,0.09342200309038162,-0.46945369243621826,6.503066062927246,6.086521148681641,6.7447428703308105,-8.036581039428711,0.14042817056179047,-15.102543830871582
1781548227939511,159556994,-0.7869413495063782,-0.39006516337394714,0.09674970805644989,-0.4682009220123291,6.144233226776123,5.662374496459961,7.294079780578613,-61.97845458984375,5.2832746505737305,-5.475520133972168
1781548227967970,159573661,-0.7916663885116577,-0.3801236152648926,0.1010136529803276,-0.4675114154815674,5.77157735824585,4.563500881195068,7.1299943923950195,-80.24921417236328,10.401383399963379,-0.38970619440078735
1781548227969864,159590328,-0.7939469814300537,-0.37629130482673645,0.10277961939573288,-0.4663577973842621,5.548917770385742,4.500638961791992,6.436605930328369,-32.899105072021484,1.449729323387146,-5.831305027008057
1781548227997721,159606995,-0.7950894832611084,-0.37554091215133667,0.10384920239448547,-0.4647762179374695,5.693882942199707,5.0264973640441895,6.665510177612305,-11.20016098022461,-6.540925025939941,-8.497736930847168
1781548228028589,159623662,-0.7971562147140503,-0.3720856010913849,0.10553126782178879,-0.463635116815567,5.759188175201416,5.024330139160156,7.307977199554443,-30.016773223876953,0.5523973107337952,-5.5309529304504395
1781548228030211,159640329,-0.7992220520973206,-0.36837586760520935,0.10735680907964706,-0.46262115240097046,5.484588146209717,4.432183742523193,7.013919353485107,-31.773832321166992,0.9020889401435852,-4.280473709106445
1781548228057755,159656996,-0.7997245192527771,-0.3684384226799011,0.10786600410938263,-0.4615831971168518,5.375689506530762,4.12540864944458,6.7082672119140625,-2.916031837463379,-5.077564239501953,-5.558276653289795
1781548228059872,159673663,-0.7991384863853455,-0.37060999870300293,0.10769739001989365,-0.4608986973762512,5.379236221313477,4.076698303222656,6.961541652679443,13.851110458374023,-7.955516815185547,-3.441735029220581
1781548228088298,159690330,-0.7977932691574097,-0.37355130910873413,0.10741084814071655,-0.46092134714126587,5.364643096923828,4.083935737609863,7.2196807861328125,20.91251564025879,-8.506505012512207,1.978040337562561
1781548228090582,159706997,-0.7956641316413879,-0.37762451171875,0.10637962818145752,-0.4615213871002197,5.469659328460693,4.658817768096924,7.18599796295166,31.921669006347656,-7.104887962341309,4.880435466766357
1781548228117934,159723664,-0.794015109539032,-0.3805670142173767,0.10555192083120346,-0.4621340334415436,5.806052207946777,5.650146007537842,7.338064193725586,23.8536376953125,-4.246569633483887,4.781446933746338
1781548228121763,159740331,-0.7941720485687256,-0.3796374201774597,0.10575465857982635,-0.4625822901725769,5.912893295288086,6.31378698348999,7.427255153656006,-5.403895854949951,3.311805248260498,3.6516475677490234
1781548228147933,159756998,-0.796222448348999,-0.37478742003440857,0.1075158342719078,-0.4626066982746124,5.4759955406188965,6.102259635925293,7.269164562225342,-37.017486572265625,7.541344165802002,2.23429012298584
1781548228178265,159773665,-0.798690676689148,-0.36971527338027954,0.10989956557750702,-0.46187257766723633,5.241107940673828,5.539138317108154,6.885163307189941,-41.85258865356445,3.1940064430236816,-1.4792193174362183
1781548228180695,159790332,-0.8007524013519287,-0.3660573363304138,0.1122698113322258,-0.4606442451477051,5.3671722412109375,4.9860124588012695,6.877198219299316,-33.38471603393555,-2.785353660583496,-4.004305362701416
1781548228207823,159806999,-0.8022308945655823,-0.3633395731449127,0.11398787051439285,-0.45980104804039,5.3855767250061035,4.356758117675781,7.086397647857666,-24.377450942993164,-1.6535849571228027,-2.404064416885376
1781548228209673,159823666,-0.8026138544082642,-0.362550288438797,0.11518381536006927,-0.4594573676586151,5.164064407348633,3.7268970012664795,7.001065731048584,-8.961847305297852,-4.480251312255859,0.9986843466758728
1781548228237715,159840333,-0.8012233972549438,-0.36542820930480957,0.11476234346628189,-0.459709495306015,5.102202415466309,3.510500431060791,6.9010515213012695,21.27726936340332,-7.058552265167236,2.952310562133789
1781548228239484,159857000,-0.7979371547698975,-0.37239792943000793,0.11243683844804764,-0.46040651202201843,5.227776050567627,4.173466682434082,6.940162658691406,54.9516716003418,-9.881321907043457,3.3814709186553955
1781548228267699,159873667,-0.7937451601028442,-0.3813803493976593,0.10941174626350403,-0.46102800965309143,5.662084579467773,5.307570457458496,7.153109550476074,70.46977996826172,-13.307820320129395,2.487569808959961
1781548228269577,159890334,-0.7906012535095215,-0.38775572180747986,0.1072092354297638,-0.46162912249565125,6.101926803588867,6.094504356384277,7.500955581665039,50.87018585205078,-8.798429489135742,3.1720283031463623
1781548228297795,159907001,-0.7894417643547058,-0.389610230922699,0.10629056394100189,-0.46226388216018677,6.116235733032227,6.2751240730285645,7.727213382720947,16.95517349243164,0.12436901032924652,3.811641216278076
1781548228327442,159923668,-0.7901524901390076,-0.38734307885169983,0.10674022138118744,-0.46285101771354675,5.873841285705566,6.0396952629089355,7.514723777770996,-14.8099946975708,7.03647518157959,4.286898136138916
1781548228329371,159940335,-0.791742742061615,-0.3837701082229614,0.10766194760799408,-0.4628962576389313,5.616815090179443,5.8626627922058105,7.037497043609619,-26.146268844604492,7.8297014236450195,0.759757936000824
1781548228357905,159957002,-0.7937771677970886,-0.37962275743484497,0.10944990068674088,-0.46241265535354614,5.509422779083252,5.404138088226318,6.777463912963867,-33.59366226196289,3.8760170936584473,-0.8213129043579102
1781548228359456,159973669,-0.7955772876739502,-0.3759242296218872,0.11112847924232483,-0.46193963289260864,5.445330619812012,4.763739585876465,6.738707065582275,-30.17740249633789,2.897721290588379,-0.6425094604492188
1781548228388420,159990336,-0.7962150573730469,-0.3746564984321594,0.11191865801811218,-0.46167993545532227,5.262292385101318,4.218726634979248,6.780509948730469,-10.892470359802246,-0.29987359046936035,0.062437381595373154
1781548228389480,160007003,-0.7953579425811768,-0.37659984827041626,0.11108754575252533,-0.46177712082862854,5.3676862716674805,4.238252639770508,6.925530433654785,15.957871437072754,-1.8474458456039429,0.1140342503786087
1781548228417703,160023670,-0.7936644554138184,-0.3804081678390503,0.10920654982328415,-0.4620179831981659,5.55302619934082,4.791390895843506,6.9813151359558105,31.765438079833984,-2.2938177585601807,-0.5882105827331543
1781548228419576,160040337,-0.7921600341796875,-0.384128600358963,0.10745196789503098,-0.46193286776542664,5.780419826507568,5.342372894287109,7.030876636505127,30.145572662353516,-3.4155542850494385,-2.5715744495391846
1781548228447860,160057004,-0.791105329990387,-0.38684406876564026,0.10634058713912964,-0.4617314636707306,5.885553359985352,5.4410600662231445,7.029149532318115,21.355243682861328,-3.7016303539276123,-2.19183611869812
1781548228478290,160073671,-0.7904052138328552,-0.3887023627758026,0.10560733079910278,-0.46153801679611206,5.854621887207031,5.187317371368408,6.990762710571289,14.554421424865723,-2.7567098140716553,-1.6428509950637817
1781548228480393,160090338,-0.7894631624221802,-0.39113789796829224,0.10472530126571655,-0.4612935483455658,5.89939022064209,5.051637172698975,6.930209159851074,18.773714065551758,-4.091274738311768,-1.9690810441970825
1781548228508742,160107005,-0.7881413102149963,-0.39422523975372314,0.10370117425918579,-0.4611571431159973,6.022339344024658,5.018340110778809,6.836544036865234,23.8615665435791,-5.3698930740356445,-1.029389500617981
1781548228510397,160123672,-0.7871116399765015,-0.39635053277015686,0.10254733264446259,-0.4613521099090576,6.246780872344971,4.961221694946289,7.205334186553955,18.50439453125,-0.509680449962616,0.17369909584522247
1781548228538497,160140339,-0.7864812612533569,-0.3978891372680664,0.10096552222967148,-0.4614516794681549,6.368669033050537,4.952573299407959,7.057682991027832,15.532421112060547,3.6889946460723877,-2.362415075302124
1781548228539975,160157006,-0.7853519916534424,-0.40075331926345825,0.09880614280700684,-0.46136385202407837,6.440696716308594,5.117603778839111,6.855098247528076,25.767623901367188,1.7478210926055908,-4.294222831726074
1781548228569596,160173673,-0.7839189767837524,-0.4042319357395172,0.0962914526462555,-0.4612981081008911,6.51004695892334,5.289595127105713,6.9144392013549805,31.064714431762695,1.5726954936981201,-4.608201503753662
1781548228571484,160190340,-0.7822397351264954,-0.40826353430747986,0.09357094764709473,-0.46115776896476746,6.548696041107178,5.359519958496094,6.966855525970459,35.332759857177734,0.5583017468452454,-5.168704509735107
1781548228597754,160207007,-0.779944121837616,-0.41339927911758423,0.09053602069616318,-0.4610763490200043,6.673055171966553,5.360789775848389,7.006889343261719,44.036277770996094,-1.48198664188385,-4.491641044616699
1781548228627690,160223674,-0.7784714102745056,-0.4162367880344391,0.08717240393161774,-0.4616604447364807,6.866756439208984,5.514180660247803,7.535646438598633,30.83043670654297,9.9705810546875,-3.035372495651245
1781548228629687,160240341,-0.7784283757209778,-0.4166790544986725,0.08333685994148254,-0.4620422124862671,6.836087703704834,5.711989879608154,7.181260108947754,15.296152114868164,20.376970291137695,-8.572976112365723
1781548228657711,160257008,-0.7787203192710876,-0.41686809062957764,0.0799618735909462,-0.4619762897491455,6.715853691101074,5.6720685958862305,6.744795322418213,11.261996269226074,17.627033233642578,-10.569268226623535
1781548228659238,160273675,-0.7791993021965027,-0.4165020287036896,0.07622560113668442,-0.46213048696517944,6.680579662322998,5.330209255218506,6.886264801025391,9.023062705993652,22.058727264404297,-10.716084480285645
1781548228688170,160290342,-0.7790342569351196,-0.4171927273273468,0.07154756039381027,-0.46253329515457153,6.385867595672607,5.018352508544922,6.814162731170654,19.6514892578125,24.12179183959961,-10.589776039123535
1781548228719169,160307009,-0.77763831615448,-0.4203920066356659,0.06617432087659836,-0.4627855718135834,6.332890510559082,4.953029632568359,6.6089301109313965,38.75698471069336,18.831283569335938,-10.710817337036133
1781548228719881,160323676,-0.7755364179611206,-0.4248252809047699,0.06021644547581673,-0.46307769417762756,6.33123254776001,4.832228660583496,6.652351379394531,49.273826599121094,17.825727462768555,-10.504462242126465
1781548228722553,160340343,-0.7726465463638306,-0.4305468797683716,0.05309182032942772,-0.46349576115608215,6.363726615905762,4.983164310455322,6.613665580749512,62.21353530883789,19.98755645751953,-11.266343116760254
1781548228747929,160357010,-0.7695268988609314,-0.4361741542816162,0.04484759271144867,-0.4642943739891052,6.411631107330322,5.5303521156311035,6.650147438049316,66.10047149658203,27.27803611755371,-11.794648170471191
1781548228779159,160373677,-0.768030047416687,-0.4381237328052521,0.037665657699108124,-0.46557363867759705,6.1410322189331055,5.635739326477051,6.7271904945373535,38.53375244140625,35.3404426574707,-10.113058090209961
1781548228779804,160390344,-0.767410933971405,-0.4378005862236023,0.03141331300139427,-0.46735909581184387,5.763559818267822,5.1353960037231445,6.4188995361328125,21.044485092163086,39.458919525146484,-6.862139701843262
1781548228808545,160407011,-0.7665088176727295,-0.43735572695732117,0.024960260838270187,-0.46963971853256226,5.499839782714844,4.544190406799316,6.282546520233154,22.0085506439209,42.339473724365234,-3.9186980724334717
1781548228809141,160423678,-0.763952910900116,-0.4389249086380005,0.017275379970669746,-0.47267627716064453,5.208534240722656,4.33787727355957,5.898640155792236,41.70449447631836,44.31748580932617,1.35421884059906
1781548228838058,160440345,-0.7601325511932373,-0.44194626808166504,0.008538543246686459,-0.47624507546424866,5.034637928009033,4.89614725112915,5.648695945739746,56.63175582885742,46.5799560546875,4.910733699798584
1781548228838879,160457012,-0.7570752501487732,-0.44233474135398865,0.0013270045164972544,-0.4808070957660675,4.799347877502441,5.505722999572754,5.962644100189209,35.61748504638672,50.292240142822266,12.390936851501465
1781548228867640,160473679,-0.7554823756217957,-0.43843263387680054,-0.0028380430303514004,-0.4868420660495758,4.399116516113281,5.059317588806152,6.2038984298706055,-1.2260563373565674,53.1112060546875,24.521018981933594
1781548228869893,160490346,-0.753367006778717,-0.4326271712779999,-0.006178735755383968,-0.49521124362945557,3.783294677734375,3.964076519012451,5.980623245239258,-12.340907096862793,62.247005462646484,40.8425178527832
1781548228898290,160507013,-0.7494351863861084,-0.42852193117141724,-0.0090263606980443,-0.5046132802963257,2.9443647861480713,2.9875142574310303,5.675722122192383,0.14865291118621826,57.05309295654297,53.915924072265625
1781548228930083,160523680,-0.7429616451263428,-0.43110185861587524,-0.012735809199512005,-0.5118567943572998,2.9668381214141846,2.82118821144104,5.073955535888672,45.21092224121094,32.09622573852539,49.48741149902344
1781548228931480,160540347,-0.7320413589477539,-0.44239187240600586,-0.02203058823943138,-0.5176094174385071,4.5191330909729,4.624338150024414,4.262216091156006,122.67865753173828,25.943872451782227,41.72987365722656
1781548228958718,160557014,-0.7198580503463745,-0.4527629017829895,-0.03471677377820015,-0.5249809622764587,5.420596599578857,7.588781833648682,5.101926803588867,133.72166442871094,51.40111541748047,43.9188117980957
1781548228959368,160573681,-0.7131058573722839,-0.45244088768959045,-0.040658336132764816,-0.5339705348014832,4.732008457183838,8.62868881225586,6.068795204162598,39.152034759521484,60.35295867919922,50.764678955078125
1781548228991556,160590348,-0.7083907723426819,-0.4468907415866852,-0.03944879397749901,-0.544899046421051,3.5459182262420654,7.466267108917236,5.17940092086792,-19.615352630615234,49.94693374633789,73.57730865478516
1781548228992107,160607015,-0.7033601999282837,-0.4406629204750061,-0.03526291623711586,-0.5566481351852417,2.9181101322174072,5.475917816162109,4.996386528015137,-33.32017135620117,40.59638977050781,87.72058868408203
1781548229017986,160623682,-0.6957722902297974,-0.43775829672813416,-0.028971530497074127,-0.5687085390090942,2.961371421813965,3.852213144302368,4.525295734405518,-17.63524055480957,19.2554988861084,106.19910430908203
1781548229019773,160640349,-0.6843886375427246,-0.4411289691925049,-0.025102781131863594,-0.5799893736839294,4.153839588165283,3.8547422885894775,3.677098035812378,33.43922424316406,4.716374397277832,111.27135467529297
1781548229048516,160657016,-0.6690412163734436,-0.4472986161708832,-0.025738725438714027,-0.592997133731842,6.063400745391846,5.586585998535156,3.517367124557495,76.29995727539062,20.67302131652832,122.02703094482422
1781548229077903,160673683,-0.653085470199585,-0.45016494393348694,-0.024826081469655037,-0.6084526777267456,6.135523319244385,7.343517780303955,4.716712951660156,56.22677993774414,34.65419006347656,139.9462127685547
1781548229080094,160690350,-0.6401596069335938,-0.4484860599040985,-0.014831235632300377,-0.6235674023628235,4.702744007110596,7.525824069976807,5.382923603057861,-11.503508567810059,11.312376976013184,153.07513427734375
1781548229108488,160707017,-0.6304171681404114,-0.4472813904285431,0.0019869846291840076,-0.6344365477561951,4.026905536651611,6.064413547515869,4.668586254119873,-48.05691909790039,-34.173309326171875,141.8304901123047
1781548229110216,160723684,-0.6207054257392883,-0.4502710998058319,0.018115999177098274,-0.6416018009185791,6.123910427093506,5.106688976287842,4.012506008148193,-27.0159854888916,-60.87498474121094,123.4626235961914
1781548229138079,160740351,-0.6110950708389282,-0.45161235332489014,0.03128597512841225,-0.6493308544158936,7.972494602203369,5.872311115264893,3.9703991413116455,-21.24230194091797,-39.214908599853516,116.46330261230469
1781548229139145,160757018,-0.6038667559623718,-0.44627314805984497,0.046807073056697845,-0.6587826013565063,6.894295692443848,6.426904201507568,4.169000625610352,-66.8384780883789,-13.404594421386719,121.80499267578125
1781548229167971,160773685,-0.5974693298339844,-0.4389628767967224,0.06983984261751175,-0.6674313545227051,4.702149868011475,5.859818458557129,4.72068452835083,-111.86338806152344,-37.86214828491211,138.39825439453125
