host_t_us,sensor_t_us,qw,qx,qy,qz,ax,ay,az,gx,gy,gz
1781545723007954,817050129,0.6280472874641418,0.14854417741298676,-0.10952869057655334,0.755972683429718,3.6876323223114014,0.2225840985774994,9.581633567810059,0.5506026148796082,0.2065984308719635,0.6307319402694702
1781545723009661,817066796,0.6280444264411926,0.14853934943675995,-0.10953571647405624,0.7559750080108643,3.7460949420928955,0.18751128017902374,9.54099178314209,0.4182553291320801,0.17759844660758972,0.6598599553108215
1781545723040002,817083463,0.6280378103256226,0.1485455483198166,-0.10953664779663086,0.7559791207313538,3.725510358810425,0.20885765552520752,9.587933540344238,0.4975074231624603,0.14525602757930756,0.6586369276046753
1781545723069003,817100130,0.6280419230461121,0.14855116605758667,-0.10954490303993225,0.7559734582901001,3.7181718349456787,0.21258758008480072,9.594477653503418,0.4368950128555298,0.11461041867733002,0.5637418627738953
1781545723074062,817116797,0.628042995929718,0.14854730665683746,-0.10954935103654861,0.755972683429718,3.7229819297790527,0.20223094522953033,9.589417457580566,0.42867332696914673,0.1832396537065506,0.6184378266334534
1781545723100158,817133464,0.6280412077903748,0.14855016767978668,-0.1095474436879158,0.7559738159179688,3.7186334133148193,0.21114642918109894,9.586474418640137,0.4946387708187103,0.17577354609966278,0.6301684379577637
1781545723100654,817150131,0.628037691116333,0.14854879677295685,-0.1095508337020874,0.7559766173362732,3.712414264678955,0.22149239480495453,9.576067924499512,0.4452318847179413,0.17491550743579865,0.6392096877098083
1781545723128942,817166798,0.628036379814148,0.1485467404127121,-0.10954808443784714,0.7559784054756165,3.722838878631592,0.20966587960720062,9.58639907836914,0.47446879744529724,0.20593251287937164,0.6256093978881836
1781545723129865,817183465,0.6280375719070435,0.14854368567466736,-0.10955429822206497,0.755977213382721,3.706578016281128,0.20360763370990753,9.577269554138184,0.4201827347278595,0.17113764584064484,0.6111637353897095
1781545723158416,817200132,0.6280379295349121,0.14854364097118378,-0.10954749584197998,0.7559778690338135,3.7302775382995605,0.21044549345970154,9.582776069641113,0.5031294822692871,0.21297596395015717,0.6082439422607422
1781545723160127,817216799,0.6280348300933838,0.14853136241436005,-0.1095399484038353,0.7559840679168701,3.708259344100952,0.21502120792865753,9.585123062133789,0.45869138836860657,0.28275778889656067,0.6519776582717896
1781545723188622,817233466,0.6280329823493958,0.14853745698928833,-0.10953246057033539,0.7559854388237,3.702399253845215,0.20343616604804993,9.597987174987793,0.5363747477531433,0.18300916254520416,0.619488000869751
1781545723217889,817250133,0.6280253529548645,0.14854300022125244,-0.1095183715224266,0.7559927105903625,3.7171409130096436,0.2180522233247757,9.589900016784668,0.5785588622093201,0.21616478264331818,0.6682673096656799
1781545723219692,817266800,0.628014326095581,0.1485559046268463,-0.10952401906251907,0.7559985518455505,3.7131998538970947,0.20897699892520905,9.6017484664917,0.5085593461990356,0.08852388709783554,0.6911522746086121
1781545723248234,817283467,0.628018856048584,0.1485530287027359,-0.10952451080083847,0.7559952735900879,3.7226312160491943,0.2132491022348404,9.574701309204102,0.449842244386673,0.1955593377351761,0.5887398719787598
1781545723249938,817300134,0.6280155777931213,0.14855524897575378,-0.10952287912368774,0.7559977769851685,3.719670534133911,0.20796717703342438,9.595793724060059,0.49063047766685486,0.17802748084068298,0.637583315372467
1781545723277897,817316801,0.6280138492584229,0.1485639363527298,-0.10952427983283997,0.755997359752655,3.718493938446045,0.20052866637706757,9.586756706237793,0.5000431537628174,0.12935054302215576,0.6185659766197205
1781545723279841,817333468,0.6280179619789124,0.14856480062007904,-0.10952010750770569,0.7559943795204163,3.7233188152313232,0.19643409550189972,9.591084480285645,0.4862762987613678,0.195981964468956,0.5743327140808105
1781545723309218,817350135,0.6280148029327393,0.14856693148612976,-0.10952137410640717,0.7559963464736938,3.712918519973755,0.20320367813110352,9.56302547454834,0.4727015495300293,0.16532357037067413,0.6344329714775085
1781545723310041,817366802,0.6280043721199036,0.14856860041618347,-0.10951783508062363,0.7560052275657654,3.714956521987915,0.2190951704978943,9.571165084838867,0.5100833177566528,0.19010385870933533,0.7010259628295898
1781545723339174,817383469,0.6279916167259216,0.14856654405593872,-0.10952163487672806,0.7560156583786011,3.7096598148345947,0.20592567324638367,9.594082832336426,0.46052274107933044,0.17775854468345642,0.7320558428764343
1781545723367874,817400136,0.6279903054237366,0.14857117831707,-0.109535813331604,0.7560137510299683,3.7103793621063232,0.21553443372249603,9.581578254699707,0.4112054705619812,0.09397940337657928,0.6172211766242981
1781545723369997,817416803,0.6279933452606201,0.14856821298599243,-0.1095300167798996,0.7560125589370728,3.7287003993988037,0.2020735889673233,9.591981887817383,0.48226797580718994,0.22397662699222565,0.5928635001182556
1781545723398010,817433470,0.6279885172843933,0.1485658586025238,-0.1095329076051712,0.756016731262207,3.7111589908599854,0.2080458551645279,9.568915367126465,0.4507642686367035,0.18267616629600525,0.6637594699859619
1781545723399708,817450137,0.6279844641685486,0.14856639504432678,-0.1095244362950325,0.75602126121521,3.7187111377716064,0.21751220524311066,9.574667930603027,0.5202900171279907,0.2177143692970276,0.6428723931312561
1781545723427869,817466804,0.6279751062393188,0.14857685565948486,-0.10952597856521606,0.7560266852378845,3.705298900604248,0.21485279500484467,9.6012601852417,0.5128494501113892,0.11951524019241333,0.6672300100326538
1781545723429733,817483471,0.6279728412628174,0.14857105910778046,-0.10952349007129669,0.7560299634933472,3.709757089614868,0.21459032595157623,9.592264175415039,0.45799994468688965,0.22480909526348114,0.6367125511169434
1781545723457894,817500138,0.6279706954956055,0.14858205616474152,-0.10952714830636978,0.7560290694236755,3.7024004459381104,0.22295857965946198,9.573699951171875,0.4970976412296295,0.10681135207414627,0.6173108816146851
1781545723460405,817516805,0.6279715895652771,0.14858239889144897,-0.10953317582607269,0.756027340888977,3.7124106884002686,0.21112854778766632,9.596445083618164,0.4370999038219452,0.15360575914382935,0.6120602488517761
1781545723488078,817533472,0.6279680728912354,0.14859123528003693,-0.10954231023788452,0.7560272812843323,3.711198329925537,0.21905700862407684,9.581778526306152,0.4582432210445404,0.09406904131174088,0.6266595125198364
1781545723518124,817550139,0.6279691457748413,0.14858880639076233,-0.10954821109771729,0.7560260891914368,3.7129077911376953,0.2076202929019928,9.606014251708984,0.4246906042098999,0.16919109225273132,0.6134433746337891
1781545723519797,817566806,0.6279697418212891,0.14858780801296234,-0.10955449938774109,0.7560248970985413,3.719956636428833,0.200031578540802,9.585823059082031,0.43146511912345886,0.15972718596458435,0.6209350824356079
1781545723547859,817583473,0.6279629468917847,0.1485944390296936,-0.10956709086894989,0.756027340888977,3.718890905380249,0.20639364421367645,9.610814094543457,0.436984658241272,0.09079061448574066,0.6611086130142212
1781545723549708,817600140,0.6279513835906982,0.14859414100646973,-0.10956614464521408,0.7560371160507202,3.7144320011138916,0.22770588099956512,9.577361106872559,0.48727521300315857,0.18888723850250244,0.7084920406341553
1781545723577993,817616807,0.6279478073120117,0.14860288798809052,-0.10956548899412155,0.75603848695755,3.7314112186431885,0.216628760099411,9.570992469787598,0.5148600339889526,0.13841742277145386,0.63550865650177
1781545723581381,817633474,0.6279517412185669,0.14860829710960388,-0.1095617264509201,0.7560346722602844,3.704679012298584,0.2096944898366928,9.577680587768555,0.5031806826591492,0.16954965889453888,0.5703628063201904
1781545723608155,817650141,0.6279557347297668,0.14860500395298004,-0.10958323627710342,0.7560288906097412,3.709714651107788,0.2144831269979477,9.584200859069824,0.3324848413467407,0.10363537818193436,0.5927994251251221
1781545723609481,817666808,0.627950131893158,0.14860789477825165,-0.10958981513977051,0.7560320496559143,3.7202320098876953,0.2202766090631485,9.575277328491211,0.4558611810207367,0.13802042603492737,0.6648992896080017
1781545723638402,817683475,0.6279463768005371,0.14861150085926056,-0.10958972573280334,0.7560344934463501,3.701857328414917,0.20851077139377594,9.567241668701172,0.4884277880191803,0.16347946226596832,0.6389151811599731
1781545723668152,817700142,0.6279433369636536,0.14860759675502777,-0.10958819091320038,0.7560380101203918,3.718958854675293,0.21186882257461548,9.595464706420898,0.4663752615451813,0.2104915827512741,0.6494035720825195
1781545723671160,817716809,0.62794029712677,0.14860673248767853,-0.10958704352378845,0.7560408115386963,3.706073760986328,0.21950045228004456,9.58751106262207,0.47183069586753845,0.19220410287380219,0.6331651210784912
1781545723698495,817733476,0.6279472708702087,0.14860418438911438,-0.10958927124738693,0.756035327911377,3.716813087463379,0.21526622772216797,9.593419075012207,0.43152913451194763,0.18541672825813293,0.5520368814468384
1781545723700103,817750143,0.627950131893158,0.1486097276210785,-0.10959991067647934,0.7560303211212158,3.7126150131225586,0.21442948281764984,9.587790489196777,0.42664992809295654,0.10446778684854507,0.5790838599205017
1781545723728009,817766810,0.6279531121253967,0.14859940111637115,-0.10960482805967331,0.7560291290283203,3.7029623985290527,0.20551033318042755,9.5787992477417,0.391022652387619,0.21560128033161163,0.6009058952331543
1781545723729948,817783477,0.6279487609863281,0.1486051082611084,-0.10960682481527328,0.756031334400177,3.71789288520813,0.21302738785743713,9.554738998413086,0.4867886006832123,0.14291246235370636,0.6397092342376709
1781545723757955,817800144,0.627949059009552,0.14860062301158905,-0.10960046947002411,0.7560328841209412,3.7189767360687256,0.20403335988521576,9.563203811645508,0.4832283556461334,0.23488767445087433,0.6188092231750488
1781545723759949,817816811,0.6279396414756775,0.14859625697135925,-0.10959858447313309,0.7560418248176575,3.729536771774292,0.20779280364513397,9.599610328674316,0.4738413989543915,0.21515309810638428,0.7012949585914612
1781545723788656,817833478,0.6279512047767639,0.14859113097190857,-0.10959389060735703,0.7560338973999023,3.719259738922119,0.20950156450271606,9.598787307739258,0.44746023416519165,0.22945772111415863,0.5067536234855652
1781545723817909,817850145,0.6279390454292297,0.14859506487846375,-0.10960223525762558,0.756041944026947,3.715224266052246,0.22606457769870758,9.56116771697998,0.45967745780944824,0.12481708079576492,0.7195823192596436
1781545723819486,817866812,0.6279295086860657,0.1486135721206665,-0.10960304737091064,0.7560461163520813,3.719782829284668,0.19713132083415985,9.582589149475098,0.5484510660171509,0.07907280325889587,0.6483405828475952
1781545723848790,817883479,0.6279307007789612,0.14860926568508148,-0.10959531366825104,0.756047248840332,3.712893486022949,0.21435809135437012,9.57204818725586,0.4865836501121521,0.2398565262556076,0.6025451421737671
1781545723849463,817900146,0.6279262900352478,0.14860999584197998,-0.1095905676484108,0.7560514211654663,3.7206809520721436,0.21857626736164093,9.60054874420166,0.5005297660827637,0.19981105625629425,0.644178569316864
1781545723878155,817916813,0.6279200911521912,0.14860211312770844,-0.10959065705537796,0.7560579776763916,3.7222402095794678,0.2071855664253235,9.606246948242188,0.44473254680633545,0.2251676470041275,0.6815731525421143
1781545723879921,817933480,0.627920389175415,0.14860570430755615,-0.10958623141050339,0.7560576796531677,3.7182860374450684,0.21383917331695557,9.575005531311035,0.5067408680915833,0.18275301158428192,0.605170488357544
1781545723908230,817950147,0.6279136538505554,0.14860081672668457,-0.10958868265151978,0.7560638785362244,3.7264974117279053,0.19467084109783173,9.575216293334961,0.4446556568145752,0.19827429950237274,0.6815987229347229
1781545723909550,817966814,0.6279100179672241,0.1485973447561264,-0.10958607494831085,0.7560678720474243,3.712421417236328,0.22174988687038422,9.59017562866211,0.47143375873565674,0.21286073327064514,0.646458089351654
1781545723939104,817983481,0.6279075145721436,0.14859265089035034,-0.10959205776453018,0.7560701966285706,3.723257064819336,0.21592441201210022,9.586578369140625,0.4164048731327057,0.18107537925243378,0.6367765069007874
1781545723967811,818000148,0.6279081702232361,0.1485835462808609,-0.10960371047258377,0.7560697793960571,3.722062826156616,0.2130059003829956,9.584471702575684,0.3618369996547699,0.17909039556980133,0.6160046458244324
1781545723970126,818016815,0.6279069185256958,0.1485842913389206,-0.10959925502538681,0.7560713887214661,3.7097320556640625,0.20280671119689941,9.583809852600098,0.49448516964912415,0.1982230693101883,0.6172339916229248
1781545723997932,818033482,0.6279060244560242,0.14859966933727264,-0.10960405319929123,0.756068229675293,3.7208075523376465,0.2124374359846115,9.580945014953613,0.5042436122894287,0.07743359357118607,0.5897260308265686
1781545723999835,818050149,0.6279062628746033,0.14859919250011444,-0.10960255563259125,0.7560682892799377,3.726776361465454,0.21116788685321808,9.5816068649292,0.47386693954467773,0.1914101094007492,0.6121242046356201
1781545724030394,818066816,0.6279036402702332,0.14861039817333221,-0.10959292203187943,0.7560697793960571,3.7133982181549072,0.20581677556037903,9.5955810546875,0.5672380328178406,0.1648625284433365,0.6097167134284973
1781545724032159,818083483,0.6279023289680481,0.14861446619033813,-0.10960787534713745,0.7560679316520691,3.725532293319702,0.20759890973567963,9.595097541809082,0.4062558114528656,0.09360161423683167,0.6209415197372437
1781545724059534,818100150,0.6279000639915466,0.14860877394676208,-0.10960467904806137,0.7560713291168213,3.7130649089813232,0.2155592292547226,9.586002349853516,0.4672204852104187,0.22744719684123993,0.6457793712615967
1781545724060900,818116817,0.6278942227363586,0.14861932396888733,-0.10960889607667923,0.7560734748840332,3.7358062267303467,0.2154308259487152,9.597864151000977,0.500709056854248,0.10709308832883835,0.6544108390808105
1781545724088808,818133484,0.6278895735740662,0.1486252397298813,-0.1096067726612091,0.756076455116272,3.7002909183502197,0.19493190944194794,9.623846054077148,0.5117481350898743,0.1601882129907608,0.6447804570198059
1781545724118596,818150151,0.6278905868530273,0.14863009750843048,-0.10960658639669418,0.756074845790863,3.716662883758545,0.20261003077030182,9.602910041809082,0.4901438355445862,0.1570250540971756,0.6047606468200684
1781545724119363,818166818,0.6278841495513916,0.14862284064292908,-0.10959836095571518,0.7560827732086182,3.7181732654571533,0.2039920836687088,9.580005645751953,0.49139875173568726,0.25856661796569824,0.677423894405365
1781545724147901,818183485,0.6278837323188782,0.14861658215522766,-0.10960545390844345,0.7560833096504211,3.7173566818237305,0.21299533545970917,9.591731071472168,0.40718427300453186,0.18439219892024994,0.6352396607398987
1781545724149745,818200152,0.6278875470161438,0.1486109346151352,-0.10960705578327179,0.7560810446739197,3.7173280715942383,0.21082457900047302,9.572091102600098,0.42666274309158325,0.20489518344402313,0.5819268226623535
1781545724177920,818216819,0.6278865933418274,0.14860619604587555,-0.10960812121629715,0.7560825347900391,3.710179090499878,0.21183663606643677,9.571515083312988,0.44446995854377747,0.20314712822437286,0.6313402056694031
1781545724180172,818233486,0.6278737187385559,0.14862045645713806,-0.10960890352725983,0.7560902833938599,3.7041208744049072,0.19982801377773285,9.605228424072266,0.5447949171066284,0.10286059230566025,0.7077428698539734
1781545724207912,818250153,0.6278706192970276,0.14861997961997986,-0.10961717367172241,0.7560917139053345,3.713576555252075,0.20302486419677734,9.584446907043457,0.4253949224948883,0.1480349898338318,0.6440249085426331
1781545724209611,818266820,0.6278719902038574,0.14861756563186646,-0.1096198558807373,0.7560907006263733,3.7240195274353027,0.20669065415859222,9.590269088745117,0.4402886927127838,0.18302194774150848,0.6043508648872375
1781545724238136,818283487,0.6278735399246216,0.14862705767154694,-0.10963089764118195,0.7560858726501465,3.72300386428833,0.2040584534406662,9.593481063842773,0.4435158967971802,0.08136514574289322,0.5835789442062378
1781545724267841,818300154,0.6278809309005737,0.1486259549856186,-0.10963818430900574,0.7560790777206421,3.7159616947174072,0.224760964512825,9.584214210510254,0.412204384803772,0.15491199493408203,0.5553025007247925
1781545724269473,818316821,0.6278749108314514,0.14863502979278564,-0.10964007675647736,0.7560819983482361,3.711613178253174,0.20967303216457367,9.585125923156738,0.5048326849937439,0.1251884549856186,0.6532454490661621
1781545724298004,818333488,0.6278810501098633,0.14863067865371704,-0.10963879525661469,0.7560778856277466,3.7203140258789062,0.2250078171491623,9.587007522583008,0.45011118054389954,0.21113190054893494,0.576484203338623
1781545724299638,818350155,0.6278772354125977,0.14862535893917084,-0.10964629054069519,0.7560809850692749,3.7188405990600586,0.20947615802288055,9.574894905090332,0.4105011820793152,0.17772012948989868,0.6546030044555664
1781545724328586,818366822,0.6278789639472961,0.148627370595932,-0.10962700843811035,0.7560819387435913,3.7173779010772705,0.23246395587921143,9.58703327178955,0.5723477602005005,0.2569658160209656,0.5821446180343628
1781545724329407,818383489,0.6278823018074036,0.14862357079982758,-0.10962630808353424,0.756079912185669,3.718843936920166,0.20734477043151855,9.573503494262695,0.4521346092224121,0.20542025566101074,0.595706582069397
1781545724358480,818400156,0.6278817653656006,0.14861980080604553,-0.10962361842393875,0.7560815811157227,3.7111518383026123,0.2029283046722412,9.564291000366211,0.4665480852127075,0.2144935429096222,0.6221708655357361
1781545724359907,818416823,0.6278844475746155,0.14860571920871735,-0.10963717103004456,0.756080150604248,3.707418441772461,0.20930807292461395,9.595540046691895,0.33079439401626587,0.1973266452550888,0.6152234077453613
1781545724388165,818433490,0.6278827786445618,0.14860279858112335,-0.10964012145996094,0.7560817003250122,3.7217016220092773,0.2248828113079071,9.569855690002441,0.44217121601104736,0.18490448594093323,0.6327552795410156
1781545724417847,818450157,0.6279206871986389,0.14852482080459595,-0.10963799059391022,0.756065845489502,3.7160799503326416,0.20225240290164948,9.582472801208496,0.4251515865325928,0.14726661145687103,0.6138275861740112
1781545724419620,818466824,0.6279248595237732,0.1485213041305542,-0.10964365303516388,0.7560622096061707,3.717217206954956,0.21050986647605896,9.58652400970459,0.41526511311531067,0.17504359781742096,0.5832332372665405
1781545724448519,818483491,0.6279152631759644,0.1485234797000885,-0.10963966697454453,0.7560702562332153,3.7135488986968994,0.20579737424850464,9.58165168762207,0.5104674696922302,0.18840061128139496,0.6841215491294861
1781545724450375,818500158,0.6279181241989136,0.1485178917646408,-0.10964158177375793,0.7560688853263855,3.7116739749908447,0.21986502408981323,9.605345726013184,0.4325152337551117,0.203217551112175,0.6039153933525085
1781545724478195,818516825,0.6279237866401672,0.14852552115917206,-0.10965108126401901,0.7560612559318542,3.7219417095184326,0.21319209039211273,9.574337005615234,0.43826523423194885,0.09741149097681046,0.5527155995368958
1781545724479383,818533492,0.6279199123382568,0.14852586388587952,-0.10964139550924301,0.756065845489502,3.7122325897216797,0.21325159072875977,9.573893547058105,0.528306782245636,0.22340038418769836,0.6452800035476685
1781545724508204,818550159,0.6279194355010986,0.14851851761341095,-0.10963975638151169,0.7560678720474243,3.715507745742798,0.2156953662633896,9.604934692382812,0.4479340612888336,0.22871500253677368,0.6298738718032837
1781545724510020,818566826,0.6279153823852539,0.14852064847946167,-0.10963458567857742,0.7560715079307556,3.7117271423339844,0.21114546060562134,9.602925300598145,0.5144502520561218,0.19368962943553925,0.6501847505569458
1781545724538377,818583493,0.6279099583625793,0.1485193818807602,-0.10964028537273407,0.7560755014419556,3.7102184295654297,0.21459388732910156,9.59968090057373,0.43870070576667786,0.16341543197631836,0.659290075302124
1781545724568207,818600160,0.6279168128967285,0.14852090179920197,-0.10964302718639374,0.7560690641403198,3.710618734359741,0.2115146815776825,9.589339256286621,0.4473066031932831,0.16045716404914856,0.5520241260528564
1781545724569990,818616827,0.6279203295707703,0.14851900935173035,-0.10963217169046402,0.7560680508613586,3.715862512588501,0.20554274320602417,9.58434009552002,0.5113511085510254,0.23998460173606873,0.578354001045227
1781545724597905,818633494,0.6279235482215881,0.1485172063112259,-0.10962832719087601,0.7560664415359497,3.7119815349578857,0.204891636967659,9.590182304382324,0.4743279814720154,0.20823761820793152,0.5837326049804688
1781545724599776,818650161,0.6279295682907104,0.14851044118404388,-0.10962289571762085,0.7560635805130005,3.713819742202759,0.20237399637699127,9.588154792785645,0.4572314918041229,0.24173904955387115,0.5672124028205872
1781545724627898,818666828,0.6279261112213135,0.14849476516246796,-0.10961420834064484,0.7560707330703735,3.716806173324585,0.20925076305866241,9.575502395629883,0.45226263999938965,0.30518168210983276,0.6614159345626831
1781545724629628,818683495,0.6279258728027344,0.14848698675632477,-0.10961960256099701,0.7560716867446899,3.7043821811676025,0.20779553055763245,9.59587287902832,0.4086313843727112,0.19963176548480988,0.6342151761054993
1781545724657968,818700162,0.6279336810112,0.14848873019218445,-0.10961290448904037,0.7560657858848572,3.711376667022705,0.20910783112049103,9.593629837036133,0.5004785656929016,0.20148871839046478,0.5457490086555481
1781545724659616,818716829,0.6279299259185791,0.14849548041820526,-0.10960070788860321,0.7560693025588989,3.7217419147491455,0.2228759527206421,9.5938138961792,0.5606555342674255,0.19958055019378662,0.616235077381134
1781545724688357,818733496,0.6279405355453491,0.1484871208667755,-0.10960034281015396,0.7560622692108154,3.719095230102539,0.21690788865089417,9.580269813537598,0.4178007245063782,0.2275112271308899,0.5345562696456909
1781545724717853,818750163,0.6279308795928955,0.14847850799560547,-0.10961281508207321,0.7560701966285706,3.711695432662964,0.21873514354228973,9.566826820373535,0.3830443322658539,0.17328912019729614,0.7196720242500305
1781545724719550,818766830,0.6279245615005493,0.14847221970558167,-0.10961593687534332,0.7560760974884033,3.7177464962005615,0.21393229067325592,9.596476554870605,0.43338608741760254,0.2020137757062912,0.673261821269989
1781545724747892,818783497,0.6279133558273315,0.14847154915332794,-0.10961735248565674,0.7560852766036987,3.701262950897217,0.2204422503709793,9.587894439697266,0.47522440552711487,0.1799612194299698,0.7129230499267578
1781545724749633,818800164,0.6279176473617554,0.14846375584602356,-0.10962466895580292,0.75608229637146,3.7072575092315674,0.21630331873893738,9.571883201599121,0.3862459361553192,0.19056490063667297,0.5842320919036865
1781545724777922,818816831,0.6279177665710449,0.14846473932266235,-0.10962417721748352,0.7560821175575256,3.704482316970825,0.21622464060783386,9.59605884552002,0.47419992089271545,0.17842446267604828,0.6115480065345764
1781545724779577,818833498,0.6279215812683105,0.1484614908695221,-0.10963214933872223,0.7560784220695496,3.7188587188720703,0.2009292095899582,9.566007614135742,0.40334242582321167,0.1630440503358841,0.5837454795837402
1781545724807886,818850165,0.6279178261756897,0.14846454560756683,-0.10962950438261032,0.7560813426971436,3.7227065563201904,0.2157740443944931,9.595650672912598,0.49754586815834045,0.1771182119846344,0.6346250772476196
1781545724809591,818866832,0.6279136538505554,0.14846520125865936,-0.10962362587451935,0.7560854554176331,3.7160866260528564,0.21465419232845306,9.577383041381836,0.5059724450111389,0.20460064709186554,0.6414892077445984
1781545724838167,818883499,0.6279183626174927,0.14846579730510712,-0.10962788015604019,0.7560807466506958,3.725681781768799,0.20245614647865295,9.575956344604492,0.441991925239563,0.15892037749290466,0.5795449018478394
1781545724867840,818900166,0.627914309501648,0.14846569299697876,-0.10962548851966858,0.7560845613479614,3.727616786956787,0.19429892301559448,9.58233642578125,0.48603296279907227,0.19316457211971283,0.646906316280365
1781545724869507,818916833,0.6279177665710449,0.148455411195755,-0.10963810235261917,0.7560818195343018,3.7168989181518555,0.2175871729850769,9.592679023742676,0.34985026717185974,0.18023018538951874,0.5979604721069336
1781545724897910,818933500,0.6279111504554749,0.14846721291542053,-0.10963141173124313,0.7560861110687256,3.7008306980133057,0.2164975255727768,9.610005378723145,0.5607068538665771,0.148355171084404,0.6438840627670288
1781545724899856,818950167,0.62790447473526,0.14846819639205933,-0.109636589884758,0.7560906410217285,3.7131152153015137,0.21511602401733398,9.611153602600098,0.45808953046798706,0.1538746953010559,0.6780770421028137
1781545724928009,818966834,0.6279008984565735,0.14846356213092804,-0.10964234918355942,0.7560936212539673,3.7237937450408936,0.19752822816371918,9.570595741271973,0.4264065623283386,0.1813058853149414,0.6612493991851807
1781545724929808,818983501,0.627902090549469,0.14845316112041473,-0.1096511110663414,0.7560935020446777,3.71239972114563,0.21554891765117645,9.592474937438965,0.3724534511566162,0.19831271469593048,0.6149160861968994
1781545724958139,819000168,0.6278985142707825,0.14845508337020874,-0.1096467524766922,0.7560967206954956,3.7074899673461914,0.21636053919792175,9.594653129577637,0.5045125484466553,0.19102592766284943,0.6389921307563782
1781545724960022,819016835,0.6278941035270691,0.14846543967723846,-0.10964784771203995,0.7560981512069702,3.7236578464508057,0.2089899778366089,9.59111213684082,0.5071506500244141,0.12079588323831558,0.6234195232391357
1781545724989133,819033502,0.6278936862945557,0.1484709233045578,-0.10965278744697571,0.7560967803001404,3.7068569660186768,0.21316340565681458,9.59000015258789,0.4649665653705597,0.1299140304327011,0.6113303303718567
1781545725018174,819050169,0.6278958320617676,0.1484718769788742,-0.1096375435590744,0.7560970783233643,3.7057888507843018,0.2135424017906189,9.582883834838867,0.5487329363822937,0.24421069025993347,0.5876770615577698
1781545725019803,819066836,0.6278949975967407,0.14847801625728607,-0.10963857918977737,0.756096363067627,3.726454019546509,0.21411101520061493,9.600203514099121,0.4868141710758209,0.1436680257320404,0.6054521203041077
1781545725048306,819083503,0.6279017925262451,0.14847230911254883,-0.10963457822799683,0.756092369556427,3.745694160461426,0.22287622094154358,9.612480163574219,0.4518016576766968,0.22943216562271118,0.5566600561141968
1781545725050357,819100170,0.6278983950614929,0.14847901463508606,-0.10963444411754608,0.7560939192771912,3.720660924911499,0.2134423553943634,9.582908630371094,0.4948822259902954,0.14597317576408386,0.6145703196525574
1781545725078356,819116837,0.6278975605964661,0.14847730100154877,-0.10963138937950134,0.7560954093933105,3.718214988708496,0.20569628477096558,9.579536437988281,0.47685083746910095,0.20442135632038116,0.6200899481773376
1781545725080770,819133504,0.6279017329216003,0.14848558604717255,-0.10963259637355804,0.7560902237892151,3.71553635597229,0.20368646085262299,9.602852821350098,0.4907457232475281,0.13118183612823486,0.5690436959266663
1781545725108275,819150171,0.6278993487358093,0.14849431812763214,-0.10963602364063263,0.7560898065567017,3.7249531745910645,0.22462885081768036,9.592854499816895,0.4886198341846466,0.11899019777774811,0.6188604235649109
1781545725109766,819166838,0.6278964281082153,0.14848753809928894,-0.10962638258934021,0.7560951113700867,3.7202064990997314,0.20087887346744537,9.604283332824707,0.4880051612854004,0.26110225915908813,0.6288366317749023
1781545725138384,819183505,0.6278989911079407,0.14848776161670685,-0.10963407903909683,0.756091833114624,3.723618507385254,0.22021569311618805,9.595454216003418,0.4217322766780853,0.14555056393146515,0.5908785462379456
1781545725167821,819200172,0.6278937458992004,0.14847981929779053,-0.10962343961000443,0.756099283695221,3.7191989421844482,0.21553805470466614,9.570149421691895,0.4948181211948395,0.2719748616218567,0.6569593548774719
1781545725170073,819216839,0.6278947591781616,0.14848001301288605,-0.10962329804897308,0.7560985088348389,3.7115631103515625,0.20675484836101532,9.603900909423828,0.46591421961784363,0.1808960884809494,0.6009572148323059
1781545725197896,819233506,0.6278939247131348,0.14849205315113068,-0.10961829870939255,0.7560973167419434,3.717604160308838,0.20838215947151184,9.588484764099121,0.5446604490280151,0.13873758912086487,0.5971921682357788
1781545725199768,819250173,0.6278914213180542,0.14849138259887695,-0.10962066054344177,0.756099283695221,3.7054014205932617,0.1965125948190689,9.58454704284668,0.4506746232509613,0.1746722012758255,0.6246616840362549
1781545725228376,819266840,0.6278939247131348,0.1484953910112381,-0.10963134467601776,0.7560948729515076,3.7133123874664307,0.22903114557266235,9.573793411254883,0.4261888861656189,0.11208757013082504,0.5939648747444153
1781545725229475,819283507,0.6278988718986511,0.14848704636096954,-0.1096397414803505,0.7560911774635315,3.7236328125,0.2028675079345703,9.590923309326172,0.3826345205307007,0.18861831724643707,0.5918774604797363
1781545725258436,819300174,0.6278925538063049,0.14848928153514862,-0.10963127762079239,0.7560971975326538,3.719088554382324,0.20999675989151,9.598228454589844,0.5251820087432861,0.20726436376571655,0.6442169547080994
1781545725260089,819316841,0.6278944611549377,0.14848990738391876,-0.10963867604732513,0.7560943365097046,3.7294232845306396,0.20502051711082458,9.589550018310547,0.4255101680755615,0.14485901594161987,0.5917621850967407
1781545725288390,819333508,0.627896249294281,0.14849446713924408,-0.10964258760213852,0.7560914754867554,3.7125072479248047,0.21770519018173218,9.580015182495117,0.4602794647216797,0.13912178575992584,0.5833484530448914
1781545725317827,819350175,0.627885639667511,0.1484987884759903,-0.10964291542768478,0.7560993432998657,3.7064568996429443,0.21917106211185455,9.58043384552002,0.5041411519050598,0.1578446626663208,0.7063534259796143
1781545725319407,819366842,0.62788325548172,0.1485031396150589,-0.10963916778564453,0.7561008930206299,3.7274630069732666,0.20523138344287872,9.587636947631836,0.5047942399978638,0.17459537088871002,0.6127262115478516
1781545725348335,819383509,0.627885103225708,0.14851254224777222,-0.10964350402355194,0.7560970783233643,3.713111639022827,0.20579999685287476,9.579686164855957,0.4805646538734436,0.1112423688173294,0.5825672745704651
1781545725349475,819400176,0.627871572971344,0.148524671792984,-0.10964459925889969,0.7561057806015015,3.7243542671203613,0.20973077416419983,9.58144760131836,0.5308679938316345,0.1121387928724289,0.7033694982528687
1781545725378328,819416843,0.6278737187385559,0.1485201120376587,-0.10964839160442352,0.7561042308807373,3.7188119888305664,0.21308459341526031,9.583259582519531,0.4213481545448303,0.18861831724643707,0.5938752889633179
1781545725379777,819433510,0.6278752684593201,0.1485161930322647,-0.10966449230909348,0.7561014890670776,3.7120745182037354,0.206704780459404,9.570775032043457,0.3640781044960022,0.13075922429561615,0.6149801015853882
1781545725408318,819450177,0.6278778314590454,0.14851050078868866,-0.10966894030570984,0.7560998797416687,3.725238561630249,0.20814956724643707,9.592031478881836,0.4158029556274414,0.19199921190738678,0.6001759767532349
1781545725409885,819466844,0.6278766989707947,0.14850853383541107,-0.10966016352176666,0.7561025023460388,3.719695568084717,0.20354340970516205,9.594674110412598,0.5040642619132996,0.2311866134405136,0.6123676300048828
1781545725438386,819483511,0.6278709173202515,0.14849640429019928,-0.10965346544981003,0.7561105489730835,3.716273784637451,0.20834672451019287,9.596195220947266,0.45919084548950195,0.277263879776001,0.6734923124313354
1781545725467823,819500178,0.6278661489486694,0.14850017428398132,-0.10965067148208618,0.7561142444610596,3.69870662689209,0.21419335901737213,9.594030380249023,0.5018103718757629,0.17376293241977692,0.6392608880996704
1781545725469680,819516845,0.6278634667396545,0.14849987626075745,-0.10965218394994736,0.7561162710189819,3.713930606842041,0.21663948893547058,9.600579261779785,0.46156007051467896,0.1765291392803192,0.6342921257019043
1781545725499787,819533512,0.6278725862503052,0.1484912633895874,-0.10965973883867264,0.7561092376708984,3.722935199737549,0.21312393248081207,9.575312614440918,0.3809952735900879,0.19356155395507812,0.5590419173240662
1781545725500570,819550179,0.6278722882270813,0.14847849309444427,-0.10966049879789352,0.7561118602752686,3.730184555053711,0.20687644183635712,9.581199645996094,0.406607985496521,0.24670790135860443,0.6257758736610413
1781545725528396,819566846,0.6278729438781738,0.14848104119300842,-0.10964604467153549,0.756112813949585,3.725274085998535,0.20163863897323608,9.586278915405273,0.5504360795021057,0.23191656172275543,0.5898411870002747
1781545725529487,819583513,0.627870500087738,0.14848259091377258,-0.10963977128267288,0.7561156153678894,3.715785264968872,0.2151886522769928,9.578834533691406,0.5132080316543579,0.20155270397663116,0.6347019076347351
1781545725558430,819600180,0.627873420715332,0.14848299324512482,-0.10964370518922806,0.7561123967170715,3.709900140762329,0.21032032370567322,9.593069076538086,0.44165897369384766,0.16116151213645935,0.5832075476646423
1781545725559610,819616847,0.6278777122497559,0.1484868824481964,-0.10965356975793839,0.7561068534851074,3.7247486114501953,0.20328235626220703,9.579697608947754,0.42723900079727173,0.11626244336366653,0.578661322593689
1781545725588384,819633514,0.6278748512268066,0.14848917722702026,-0.10966336727142334,0.7561072707176208,3.7090094089508057,0.20885396003723145,9.579843521118164,0.4306327700614929,0.12566229701042175,0.6408361792564392
1781545725617845,819650181,0.6278707981109619,0.1484864056110382,-0.10967469215393066,0.7561094760894775,3.716090679168701,0.1961907297372818,9.586552619934082,0.4038674235343933,0.14625491201877594,0.661364734172821
1781545725619391,819666848,0.6278699040412903,0.14849348366260529,-0.10967342555522919,0.7561089992523193,3.7247743606567383,0.21225520968437195,9.584060668945312,0.5048327445983887,0.14894425868988037,0.6079238057136536
1781545725648319,819683515,0.6278645992279053,0.1484910547733307,-0.10967735201120377,0.7561132907867432,3.7295444011688232,0.21137531101703644,9.589181900024414,0.44227367639541626,0.1772078573703766,0.656869649887085
1781545725649975,819700182,0.6278615593910217,0.1484842151403427,-0.10968427360057831,0.7561162114143372,3.7157652378082275,0.21172577142715454,9.599549293518066,0.4050840139389038,0.18774747848510742,0.6488016247749329
1781545725678217,819716849,0.6278604865074158,0.14848414063453674,-0.10969008505344391,0.7561162114143372,3.7167344093322754,0.2040226310491562,9.576371192932129,0.43798354268074036,0.15598773956298828,0.6255709528923035
1781545725679992,819733516,0.6278584003448486,0.14848990738391876,-0.10968928039073944,0.7561171054840088,3.729404926300049,0.2051527053117752,9.587096214294434,0.4988456964492798,0.15423965454101562,0.6207621693611145
1781545725708276,819750183,0.6278616189956665,0.14847245812416077,-0.10969309508800507,0.7561173439025879,3.713179588317871,0.19755326211452484,9.590972900390625,0.3719668388366699,0.25847697257995605,0.6202947497367859
1781545725710509,819766850,0.6278619170188904,0.1484663337469101,-0.1096913069486618,0.7561183571815491,3.712578773498535,0.20628994703292847,9.566014289855957,0.4500471353530884,0.22214534878730774,0.6152874827384949
1781545725738406,819783517,0.6278622150421143,0.1484631597995758,-0.10968401283025742,0.7561197876930237,3.7165660858154297,0.20635049045085907,9.585951805114746,0.49128350615501404,0.23094329237937927,0.6088457703590393
1781545725767821,819800184,0.6278591752052307,0.14845940470695496,-0.10968044400215149,0.7561237215995789,3.7207860946655273,0.20581787824630737,9.576746940612793,0.4764282703399658,0.21814976632595062,0.6455488204956055
1781545725769430,819816851,0.6278612017631531,0.1484585702419281,-0.1096736416220665,0.7561231255531311,3.717163562774658,0.2058679461479187,9.585479736328125,0.4968607425689697,0.21606872975826263,0.5932925939559937
1781545725797892,819833518,0.6278616786003113,0.1484643816947937,-0.10966430604457855,0.756122887134552,3.714434862136841,0.20916539430618286,9.578535079956055,0.5442954897880554,0.19183912873268127,0.6049848198890686
1781545725799427,819850185,0.6278566122055054,0.14846882224082947,-0.10966603457927704,0.7561259269714355,3.721283197402954,0.2009149044752121,9.597460746765137,0.4782083332538605,0.14963580667972565,0.6303221583366394
1781545725828288,819866852,0.6278515458106995,0.14847016334533691,-0.10966610908508301,0.756129801273346,3.718043327331543,0.20628637075424194,9.59581184387207,0.479770690202713,0.17422398924827576,0.6520417332649231
1781545725829956,819883519,0.6278451681137085,0.14847536385059357,-0.1096717044711113,0.7561334371566772,3.715092897415161,0.20139053463935852,9.590668678283691,0.46901336312294006,0.12903037667274475,0.6595334410667419
1781545725857923,819900186,0.6278474926948547,0.14847931265830994,-0.10967442393302917,0.7561303377151489,3.730252504348755,0.21407534182071686,9.583176612854004,0.45897313952445984,0.1473306566476822,0.5703884363174438
1781545725859591,819916853,0.6278402805328369,0.14848411083221436,-0.1096741259098053,0.7561353445053101,3.724745273590088,0.20340965688228607,9.593352317810059,0.5011700391769409,0.15756291151046753,0.6687668561935425
1781545725888097,819933520,0.6278408765792847,0.14848308265209198,-0.10967720299959183,0.7561347484588623,3.7137410640716553,0.20736995339393616,9.593097686767578,0.44492462277412415,0.1731482595205307,0.6091533303260803
1781545725917852,819950187,0.6278391480445862,0.14846864342689514,-0.10967960953712463,0.7561386227607727,3.718229293823242,0.20477721095085144,9.561612129211426,0.40003833174705505,0.24888500571250916,0.6583552360534668
1781545725919656,819966854,0.627838134765625,0.14847470819950104,-0.10968077927827835,0.7561380863189697,3.714435577392578,0.22457164525985718,9.599817276000977,0.48854300379753113,0.14353996515274048,0.6139043569564819
1781545725947857,819983521,0.6278436183929443,0.1484737992286682,-0.1096850112080574,0.7561331391334534,3.7186081409454346,0.21578826010227203,9.605116844177246,0.42860934138298035,0.16675788164138794,0.5601177215576172
1781545725949602,820000188,0.6278472542762756,0.1484575718641281,-0.10967055708169937,0.7561353445053101,3.7144598960876465,0.21034535765647888,9.594781875610352,0.4712672531604767,0.3331764042377472,0.6027116179466248
1781545725977871,820016855,0.6278484463691711,0.1484653502702713,-0.10966091603040695,0.7561342120170593,3.7152538299560547,0.19630517065525055,9.587639808654785,0.5506410002708435,0.1824200451374054,0.5905967950820923
1781545725979582,820033522,0.6278472542762756,0.14845332503318787,-0.10966024547815323,0.7561376690864563,3.723593235015869,0.22283321619033813,9.587096214294434,0.4235764145851135,0.24938443303108215,0.6426033973693848
1781545726007879,820050189,0.6278451681137085,0.1484609842300415,-0.10967283695936203,0.7561360597610474,3.7198243141174316,0.19605840742588043,9.582164764404297,0.435870498418808,0.08399044722318649,0.6247897744178772
1781545726009680,820066856,0.6278400421142578,0.14846175909042358,-0.10966790467500687,0.7561408281326294,3.7150626182556152,0.2011285424232483,9.60801887512207,0.5067279934883118,0.19972142577171326,0.6574075222015381
1781545726038089,820083523,0.6278337240219116,0.14847421646118164,-0.10966825485229492,0.7561435699462891,3.717421054840088,0.20736674964427948,9.573837280273438,0.5264754295349121,0.11317611485719681,0.6455232501029968
1781545726067834,820100190,0.6278300881385803,0.14848469197750092,-0.10966254770755768,0.7561454176902771,3.7188408374786377,0.21644636988639832,9.592039108276367,0.545262336730957,0.15045540034770966,0.6197184324264526
1781545726069815,820116857,0.6278284192085266,0.14847999811172485,-0.1096731498837471,0.7561461925506592,3.724015235900879,0.21349970996379852,9.56669807434082,0.39654219150543213,0.15965037047863007,0.6451775431632996
1781545726098364,820133524,0.6278394460678101,0.14848709106445312,-0.10967030376195908,0.7561360597610474,3.733177661895752,0.2098625749349594,9.597746849060059,0.4904511868953705,0.1545918583869934,0.49563780426979065
1781545726099871,820150191,0.6278397440910339,0.1484900265932083,-0.10966945439577103,0.7561352849006653,3.7085518836975098,0.21195107698440552,9.591144561767578,0.4829081892967224,0.1691654622554779,0.6021609306335449
1781545726128296,820166858,0.6278432607650757,0.14847996830940247,-0.1096702441573143,0.7561343312263489,3.722531318664551,0.21161848306655884,9.59372329711914,0.415457159280777,0.23186536133289337,0.5973201394081116
1781545726129965,820183525,0.6278464198112488,0.14848701655864716,-0.10966501384973526,0.7561310529708862,3.7238266468048096,0.21091413497924805,9.570929527282715,0.5188043713569641,0.166309654712677,0.5694279074668884
1781545726158278,820200192,0.6278403997421265,0.14848293364048004,-0.10966583341360092,0.7561367750167847,3.7184295654296875,0.21924296021461487,9.591781616210938,0.45441415905952454,0.2001824676990509,0.6677679419517517
1781545726159752,820216859,0.627842128276825,0.14846447110176086,-0.1096787080168724,0.7561370134353638,3.7174317836761475,0.1909193992614746,9.571249961853027,0.32304656505584717,0.22360526025295258,0.6395555138587952
1781545726188408,820233526,0.6278405785560608,0.14846593141555786,-0.1096779853105545,0.756138265132904,3.7133727073669434,0.2094656080007553,9.586331367492676,0.48105135560035706,0.17697735130786896,0.6274534463882446
1781545726217858,820250193,0.6278389096260071,0.1484692245721817,-0.10967838019132614,0.7561389207839966,3.7180325984954834,0.20712676644325256,9.589010238647461,0.48293381929397583,0.16196832060813904,0.6234067678451538
1781545726219732,820266860,0.6278393864631653,0.14846360683441162,-0.10967981815338135,0.7561394572257996,3.7200636863708496,0.21088159084320068,9.587968826293945,0.432323157787323,0.20512570440769196,0.6111125349998474
1781545726248508,820283527,0.6278401613235474,0.1484568864107132,-0.10967057943344116,0.7561414241790771,3.7196202278137207,0.2155878245830536,9.607852935791016,0.4841504991054535,0.25855380296707153,0.6027884483337402
1781545726249733,820300194,0.6278375387191772,0.14844359457492828,-0.10967501997947693,0.7561455368995667,3.7173244953155518,0.21033796668052673,9.58469009399414,0.3916373550891876,0.23328684270381927,0.6560757160186768
1781545726277880,820316861,0.6278294920921326,0.14844976365566254,-0.10967385023832321,0.7561511397361755,3.717519998550415,0.1977950781583786,9.575109481811523,0.5107235908508301,0.15377222001552582,0.6666153073310852
1781545726279415,820333528,0.6278267502784729,0.14844445884227753,-0.10967153310775757,0.7561547756195068,3.714531421661377,0.21423985064029694,9.592010498046875,0.46120142936706543,0.22053173184394836,0.6424497365951538
1781545726308427,820350195,0.627826452255249,0.1484411209821701,-0.10967528074979782,0.7561550736427307,3.7090489864349365,0.21811288595199585,9.595707893371582,0.43377020955085754,0.18258650600910187,0.6218570470809937
1781545726309576,820366862,0.6278210878372192,0.1484369933605194,-0.10967420041561127,0.7561606764793396,3.714817523956299,0.20322871208190918,9.588068962097168,0.4616753160953522,0.208929181098938,0.6571130156517029
1781545726338382,820383529,0.6278154850006104,0.14844655990600586,-0.10968685895204544,0.7561615705490112,3.706721067428589,0.21452952921390533,9.59280776977539,0.44921472668647766,0.07352766394615173,0.6506329774856567
1781545726367854,820400196,0.6278221607208252,0.1484440118074417,-0.10969078540802002,0.7561559677124023,3.7231104373931885,0.22158168256282806,9.5894136428833,0.42556139826774597,0.17695172131061554,0.5588498115539551
1781545726369799,820416863,0.6278210878372192,0.14844603836536407,-0.1096867248415947,0.7561570405960083,3.709681987762451,0.20593231916427612,9.580801963806152,0.49589383602142334,0.1884390264749527,0.6088202595710754
1781545726398342,820433530,0.6278172135353088,0.1484466940164566,-0.10970005393028259,0.756158173084259,3.709263563156128,0.21848838031291962,9.560761451721191,0.4052121043205261,0.1186828464269638,0.6484431028366089
1781545726399971,820450197,0.6278060078620911,0.14852489531040192,-0.10961443930864334,0.7561644911766052,3.7036490440368652,0.21395017206668854,9.586631774902344,0.38085442781448364,0.15715311467647552,0.6980292797088623
1781545726428381,820466864,0.6278061270713806,0.14852391183376312,-0.10961036384105682,0.7561652064323425,3.703505754470825,0.2065865695476532,9.593958854675293,0.4825111925601959,0.20477993786334991,0.6105234622955322
1781545726429473,820483531,0.6278049945831299,0.14853103458881378,-0.1095966324210167,0.7561666965484619,3.726731300354004,0.20836791396141052,9.606324195861816,0.5689029693603516,0.20411400496959686,0.6014310121536255
1781545726457895,820500198,0.6278047561645508,0.14853140711784363,-0.1095980629324913,0.7561666965484619,3.7108192443847656,0.21406103670597076,9.58502197265625,0.458217591047287,0.17285369336605072,0.6087946891784668
1781545726459574,820516865,0.6278035640716553,0.14852453768253326,-0.10959717631340027,0.7561691999435425,3.705805540084839,0.19846877455711365,9.599813461303711,0.4470888376235962,0.22264479100704193,0.6404134631156921
1781545726488115,820533532,0.6278074979782104,0.14852046966552734,-0.1095963642001152,0.7561668753623962,3.7163736820220947,0.2089722901582718,9.596624374389648,0.4506618082523346,0.20672647655010223,0.5917109847068787
1781545726517837,820550199,0.6278075575828552,0.1485263854265213,-0.10959434509277344,0.7561658620834351,3.7048184871673584,0.22113478183746338,9.566265106201172,0.49977418780326843,0.15822885930538177,0.5966670513153076
1781545726519676,820566866,0.6278008818626404,0.14853420853614807,-0.1095953956246376,0.7561696767807007,3.70743989944458,0.20494899153709412,9.589364051818848,0.5032959580421448,0.13494691252708435,0.6577149629592896
1781545726547920,820583533,0.6277937293052673,0.14853264391422272,-0.10958847403526306,0.7561768293380737,3.7201573848724365,0.21936245262622833,9.580323219299316,0.510531485080719,0.22133854031562805,0.6780129075050354
1781545726550358,820600200,0.6277914047241211,0.14852960407733917,-0.10957919806241989,0.7561808228492737,3.718810558319092,0.21684376895427704,9.608948707580566,0.5070225596427917,0.2393442988395691,0.63550865650177
1781545726577891,820616867,0.6277896761894226,0.14852771162986755,-0.10957841575145721,0.7561827301979065,3.7213118076324463,0.2159886211156845,9.569984436035156,0.4645310938358307,0.19502148032188416,0.6282474994659424
1781545726579619,820633534,0.6277921795845032,0.14852553606033325,-0.10956835746765137,0.7561824321746826,3.710036039352417,0.21222667396068573,9.574737548828125,0.5077269077301025,0.23771785199642181,0.5918262600898743
1781545726607914,820650201,0.6277827620506287,0.1485210806131363,-0.1095721647143364,0.7561907172203064,3.7197697162628174,0.2190445065498352,9.57266902923584,0.4434646666049957,0.1893482804298401,0.7048806548118591
1781545726610088,820666868,0.6277812123298645,0.1485152542591095,-0.1095622181892395,0.7561945915222168,3.715296506881714,0.2184230387210846,9.594663619995117,0.49767395853996277,0.25733718276023865,0.6323326826095581
1781545726638110,820683535,0.6277721524238586,0.1485127955675125,-0.1095578595995903,0.7562031745910645,3.7098474502563477,0.20484083890914917,9.596091270446777,0.49225690960884094,0.21489696204662323,0.6906400918960571
1781545726667850,820700202,0.6277696490287781,0.1485084742307663,-0.10956680774688721,0.7562049031257629,3.714027166366577,0.21409322321414948,9.597671508789062,0.40347039699554443,0.16478568315505981,0.6404775381088257
1781545726669828,820716869,0.627763569355011,0.14849995076656342,-0.10956920683383942,0.7562111020088196,3.7121853828430176,0.21941819787025452,9.571593284606934,0.426726758480072,0.21685633063316345,0.6754132509231567
1781545726697878,820733536,0.62775719165802,0.14850345253944397,-0.10957088321447372,0.756215512752533,3.704399824142456,0.20982307195663452,9.578617095947266,0.4813586473464966,0.15553951263427734,0.6596358418464661
1781545726699667,820750203,0.627758800983429,0.1485106199979782,-0.1095731109380722,0.7562124729156494,3.7220377922058105,0.20091848075389862,9.600786209106445,0.4820502698421478,0.1324624866247177,0.5875745415687561
1781545726728561,820766870,0.6277574300765991,0.1485024243593216,-0.10958261787891388,0.7562137842178345,3.7165627479553223,0.2108639031648636,9.600385665893555,0.38472190499305725,0.1832396537065506,0.6409897208213806
1781545726729797,820783537,0.6277585625648499,0.14850987493991852,-0.10957398265600204,0.756212592124939,3.716909646987915,0.21954694390296936,9.618453025817871,0.5439049005508423,0.1795770227909088,0.5936062932014465
1781545726757939,820800204,0.6277568936347961,0.1485029011964798,-0.10956534743309021,0.7562166452407837,3.7173166275024414,0.22162380814552307,9.592504501342773,0.48774904012680054,0.2578878700733185,0.639670729637146
1781545726759693,820816871,0.6277539134025574,0.1484999805688858,-0.10955798625946045,0.7562208771705627,3.721526861190796,0.20246951282024384,9.59176254272461,0.5015414357185364,0.23041824996471405,0.6496084928512573
1781545726788105,820833538,0.627750813961029,0.14850623905658722,-0.10955137759447098,0.7562231421470642,3.7112598419189453,0.20594380795955658,9.595926284790039,0.5345946550369263,0.177323117852211,0.6311289072036743
1781545726817903,820850205,0.6277449727058411,0.14851132035255432,-0.10954966396093369,0.7562273144721985,3.7227771282196045,0.2040165662765503,9.583721160888672,0.5104418396949768,0.162211611866951,0.6659109592437744
1781545726819493,820866872,0.6277505159378052,0.14851410686969757,-0.10954604297876358,0.756222665309906,3.7126216888427734,0.20147278904914856,9.580562591552734,0.4896059036254883,0.1820230484008789,0.5596310496330261
1781545726847905,820883539,0.6277492046356201,0.14851117134094238,-0.10954146087169647,0.7562249898910522,3.7174746990203857,0.2221863865852356,9.588001251220703,0.48253682255744934,0.2177271693944931,0.6308727860450745
1781545726850103,820900206,0.6277512311935425,0.1485145092010498,-0.109522745013237,0.7562252879142761,3.7284774780273438,0.21379591524600983,9.5829496383667,0.576138436794281,0.24640056490898132,0.5815298557281494
1781545726878269,820916873,0.6277593374252319,0.14850738644599915,-0.1095331683754921,0.7562183141708374,3.7274670600891113,0.1997349113225937,9.590534210205078,0.36862438917160034,0.17235426604747772,0.5576717257499695
1781545726879725,820933540,0.6277579665184021,0.14850783348083496,-0.10952729731798172,0.7562203407287598,3.7182579040527344,0.20939408242702484,9.577548027038574,0.5016375184059143,0.20531140267848969,0.6227471232414246
1781545726907954,820950207,0.6277519464492798,0.14850585162639618,-0.10952095687389374,0.7562265396118164,3.7165091037750244,0.21415920555591583,9.576837539672852,0.5036801695823669,0.22083911299705505,0.6708414554595947
1781545726909622,820966874,0.6277430653572083,0.14850734174251556,-0.10951654613018036,0.7562344074249268,3.715881586074829,0.20744134485721588,9.570886611938477,0.5129391551017761,0.1941634863615036,0.6900125741958618
1781545726939027,820983541,0.6277470588684082,0.14850878715515137,-0.10951043665409088,0.7562317252159119,3.725567579269409,0.2191392481327057,9.576082229614258,0.49959492683410645,0.20036174356937408,0.5751139521598816
1781545726968259,821000208,0.6277439594268799,0.1485053151845932,-0.10951600968837738,0.7562341094017029,3.717217206954956,0.2037903368473053,9.584053039550781,0.42723900079727173,0.17540216445922852,0.6454592347145081
1781545726970099,821016875,0.6277374029159546,0.14850617945194244,-0.10952000319957733,0.7562386989593506,3.7111873626708984,0.20042835175991058,9.593629837036133,0.4592549204826355,0.15939423441886902,0.6683313846588135
1781545726998053,821033542,0.6277289390563965,0.14850449562072754,-0.1095137819647789,0.7562470436096191,3.7172701358795166,0.21527127921581268,9.56941032409668,0.5042819976806641,0.2190461903810501,0.6830329895019531
1781545727001403,821050209,0.6277233362197876,0.14850711822509766,-0.10950930416584015,0.7562519311904907,3.7073683738708496,0.2078026831150055,9.58607006072998,0.5055754780769348,0.18737609684467316,0.6426545977592468
1781545727027915,821066876,0.6277289986610413,0.1485106348991394,-0.1094951331615448,0.7562485933303833,3.7234504222869873,0.21229082345962524,9.602645874023438,0.5457873940467834,0.22487309575080872,0.5492323040962219
1781545727029838,821083543,0.6277214884757996,0.1485166847705841,-0.10948444902896881,0.7562550902366638,3.7222676277160645,0.21423204243183136,9.593677520751953,0.5659573674201965,0.19726260006427765,0.6755028963088989
1781545727057895,821100210,0.6277284026145935,0.1485098898410797,-0.10947470366954803,0.7562520503997803,3.7203896045684814,0.20295357704162598,9.607427597045898,0.4778560996055603,0.26064765453338623,0.5578318238258362
1781545727059621,821116877,0.6277350187301636,0.14851553738117218,-0.10948310792446136,0.7562442421913147,3.7153751850128174,0.2126305103302002,9.583047866821289,0.43368056416511536,0.11243332922458649,0.5447884798049927
1781545727088101,821133544,0.6277392506599426,0.1485038846731186,-0.1094852164387703,0.7562426924705505,3.7119314670562744,0.21355679631233215,9.586907386779785,0.4006146192550659,0.2343369871377945,0.596551775932312
1781545727117823,821150211,0.6277455687522888,0.14850041270256042,-0.10948169231414795,0.7562387585639954,3.715432643890381,0.20370791852474213,9.600489616394043,0.4628854990005493,0.21544119715690613,0.5678975582122803
1781545727119500,821166878,0.6277469396591187,0.14850156009197235,-0.10947363078594208,0.756238579750061,3.7225420475006104,0.21481561660766602,9.590461730957031,0.51418137550354,0.21091416478157043,0.6005473136901855
1781545727147900,821183545,0.6277481317520142,0.1485077440738678,-0.10947226732969284,0.7562364935874939,3.705308437347412,0.21285943686962128,9.578001976013184,0.4996589720249176,0.15391312539577484,0.596193253993988
1781545727149609,821200212,0.627748966217041,0.14849959313869476,-0.10947751253843307,0.7562366127967834,3.7324514389038086,0.20538891851902008,9.589517593383789,0.40065306425094604,0.2016167789697647,0.6157613396644592
1781545727177942,821216879,0.6277538537979126,0.14849726855754852,-0.10949113219976425,0.7562310695648193,3.717796564102173,0.21326354146003723,9.590926170349121,0.3778577148914337,0.13256493210792542,0.5816195607185364
1781545727180342,821233546,0.6277538537979126,0.14849011600017548,-0.10949339717626572,0.7562320828437805,3.7149033546447754,0.21495509147644043,9.593204498291016,0.42901909351348877,0.20990246534347534,0.6364179253578186
1781545727208047,821250213,0.6277511715888977,0.14849071204662323,-0.10950149595737457,0.7562330961227417,3.7242157459259033,0.20587509870529175,9.58084487915039,0.4279561936855316,0.14206723868846893,0.6310649514198303
1781545727211408,821266880,0.6277512311935425,0.14849090576171875,-0.109516941010952,0.7562306523323059,3.7401764392852783,0.22055543959140778,9.595947265625,0.3792920708656311,0.11079412698745728,0.6042484045028687
1781545727238110,821283547,0.6277452111244202,0.14848943054676056,-0.10952283442020416,0.7562351822853088,3.707472085952759,0.20948722958564758,9.587786674499512,0.4402759075164795,0.163645938038826,0.6739278435707092
1781545727267828,821300214,0.6277452707290649,0.14849577844142914,-0.10952308773994446,0.7562337517738342,3.7023074626922607,0.2023238092660904,9.586066246032715,0.4957530200481415,0.14603719115257263,0.6113559007644653
1781545727269558,821316881,0.6277390122413635,0.1484890580177307,-0.10952417552471161,0.7562402486801147,3.711561918258667,0.2093208283185959,9.60279369354248,0.4449758529663086,0.2133474051952362,0.68430095911026
1781545727297886,821333548,0.6277295351028442,0.14848311245441437,-0.10953447967767715,0.7562477588653564,3.705587148666382,0.21901391446590424,9.58887767791748,0.3997822403907776,0.16791047155857086,0.7026011943817139
1781545727299601,821350215,0.6277225613594055,0.14848175644874573,-0.1095513328909874,0.756251335144043,3.7096426486968994,0.215452179312706,9.60635757446289,0.38394081592559814,0.11384206265211105,0.6842368841171265
1781545727327976,821366882,0.6277212500572205,0.14847593009471893,-0.10955771803855896,0.756252646446228,3.7140913009643555,0.2034398913383484,9.582673072814941,0.41241562366485596,0.18443705141544342,0.6413547992706299
1781545727329682,821383549,0.6277124285697937,0.14847983419895172,-0.10955920815467834,0.7562591433525085,3.7085633277893066,0.21450036764144897,9.575538635253906,0.4916805624961853,0.15442536771297455,0.6902174353599548
1781545727358116,821400216,0.6277068853378296,0.14847669005393982,-0.10956259071826935,0.756263792514801,3.706939220428467,0.20590370893478394,9.579554557800293,0.4451551139354706,0.1835469752550125,0.6710591316223145
1781545727360116,821416883,0.6277050375938416,0.14847590029239655,-0.10956393927335739,0.7562652230262756,3.7126646041870117,0.21927888691425323,9.587865829467773,0.46088138222694397,0.1797691434621811,0.6352525949478149
1781545727388129,821433550,0.6276980638504028,0.14847500622272491,-0.10956648737192154,0.7562707662582397,3.7135117053985596,0.2123233526945114,9.596744537353516,0.4627382159233093,0.17535093426704407,0.6818164587020874
1781545727418342,821450217,0.6276918649673462,0.14848671853542328,-0.1095697432756424,0.7562732100486755,3.7210686206817627,0.20376156270503998,9.591459274291992,0.5053834319114685,0.103981152176857,0.6422448754310608
1781545727420592,821466884,0.6276912689208984,0.14849679172039032,-0.10958124697208405,0.7562699913978577,3.722370147705078,0.2248397171497345,9.571582794189453,0.44541123509407043,0.07529493421316147,0.5982038378715515
1781545727449643,821483551,0.6276921629905701,0.14849157631397247,-0.10958431661128998,0.7562699913978577,3.7164337635040283,0.21132542192935944,9.603700637817383,0.427725613117218,0.19576425850391388,0.6165039539337158
1781545727451188,821500218,0.6276891827583313,0.14848850667476654,-0.10958842933177948,0.7562724351882935,3.71661639213562,0.20850719511508942,9.587196350097656,0.43531981110572815,0.17971789836883545,0.6414764523506165
1781545727479051,821516885,0.6276845932006836,0.14848464727401733,-0.10957656055688858,0.7562786936759949,3.715914487838745,0.21578295528888702,9.585042953491211,0.5214489698410034,0.25534582138061523,0.655454695224762
1781545727480358,821533552,0.6276866793632507,0.14849112927913666,-0.10956916958093643,0.7562767267227173,3.718111276626587,0.21262340247631073,9.595006942749023,0.532520055770874,0.179167240858078,0.5892905592918396
1781545727509527,821550219,0.6276891827583313,0.14849717915058136,-0.10955687612295151,0.7562752366065979,3.72662615776062,0.20287108421325684,9.595121383666992,0.5555971264839172,0.20316635072231293,0.5842192769050598
1781545727511035,821566886,0.6276907920837402,0.1485024243593216,-0.10955715924501419,0.7562728524208069,3.7217440605163574,0.21166487038135529,9.576614379882812,0.47979626059532166,0.15109571814537048,0.579365611076355
1781545727538716,821583553,0.6276875138282776,0.14849978685379028,-0.10955643653869629,0.7562761902809143,3.7276060581207275,0.217115119099617,9.607702255249023,0.4680016338825226,0.19918355345726013,0.6538985371589661
1781545727568216,821600220,0.6276847720146179,0.1485089659690857,-0.10956353694200516,0.7562755942344666,3.7232108116149902,0.21748705208301544,9.595736503601074,0.46957680583000183,0.1000111848115921,0.6209478974342346
1781545727570362,821616887,0.6276902556419373,0.14850199222564697,-0.10957071930170059,0.7562713623046875,3.7236292362213135,0.19969183206558228,9.575248718261719,0.3887815475463867,0.1860954761505127,0.5730777382850647
1781545727598711,821633554,0.6276826858520508,0.14851199090480804,-0.10956360399723053,0.7562768459320068,3.7099344730377197,0.19136394560337067,9.584939002990723,0.5542524456977844,0.15966317057609558,0.65120929479599
1781545727600099,821650221,0.6276798248291016,0.14850518107414246,-0.10955240577459335,0.7562820911407471,3.7220706939697266,0.21673566102981567,9.58397388458252,0.5002351999282837,0.2679920494556427,0.6384028792381287
1781545727628981,821666888,0.6276832222938538,0.14850932359695435,-0.10954727977514267,0.7562791705131531,3.712435722351074,0.20934760570526123,9.577555656433105,0.5068305134773254,0.18148519098758698,0.5765226483345032
1781545727631457,821683555,0.6276810765266418,0.1485145390033722,-0.10954698175191879,0.7562799453735352,3.7161478996276855,0.1972564458847046,9.599823951721191,0.49496540427207947,0.15466228127479553,0.6281130313873291
1781545727659341,821700222,0.6276835203170776,0.1485082358121872,-0.10954389721155167,0.756279706954956,3.7104902267456055,0.20170167088508606,9.577598571777344,0.4571802616119385,0.2291376143693924,0.6114583611488342
1781545727661687,821716889,0.627684473991394,0.14850305020809174,-0.1095426008105278,0.7562800049781799,3.717607021331787,0.20672285556793213,9.592199325561523,0.4509691596031189,0.21489693224430084,0.6141476035118103
1781545727689079,821733556,0.6276784539222717,0.1485115885734558,-0.10954378545284271,0.7562832832336426,3.7080585956573486,0.22711420059204102,9.562849998474121,0.5051016807556152,0.13043908774852753,0.6492627263069153
1781545727718381,821750223,0.6276689767837524,0.14849625527858734,-0.10953167080879211,0.7562959790229797,3.7117791175842285,0.22841507196426392,9.583592414855957,0.4819222092628479,0.31887170672416687,0.71360182762146
1781545727720762,821766890,0.62766432762146,0.1485062688589096,-0.1095389574766159,0.7562967538833618,3.714538335800171,0.21294516324996948,9.60190200805664,0.48019325733184814,0.09502951800823212,0.6480461359024048
1781545727749678,821783557,0.6276729106903076,0.14850959181785583,-0.10953663289546967,0.7562892436981201,3.7161192893981934,0.20601814985275269,9.573102951049805,0.4808720052242279,0.17280246317386627,0.5383341312408447
1781545727752771,821800224,0.627673864364624,0.14850980043411255,-0.10952283442020416,0.7562903761863708,3.71859073638916,0.2035820037126541,9.577643394470215,0.539320170879364,0.24144449830055237,0.6003040671348572
1781545727779811,821816891,0.6276711225509644,0.14850543439388275,-0.10952114313840866,0.7562938928604126,3.7181649208068848,0.20417997241020203,9.563350677490234,0.46407005190849304,0.21273267269134521,0.6483150720596313
1781545727783958,821833558,0.6276727318763733,0.1484968662261963,-0.10951854288578033,0.7562945485115051,3.7189767360687256,0.21602080762386322,9.595186233520508,0.4438488483428955,0.2389216423034668,0.6146215200424194
1781545727809185,821850225,0.627668559551239,0.14850643277168274,-0.10951436311006546,0.756296694278717,3.7052154541015625,0.20219160616397858,9.592056274414062,0.534594714641571,0.14838078618049622,0.6291055679321289
1781545727810955,821866892,0.6276631951332092,0.1485162079334259,-0.10950518399477005,0.7563005089759827,3.7089309692382812,0.20650431513786316,9.610543251037598,0.5634857416152954,0.16970333456993103,0.6379290819168091
1781545727838570,821883559,0.6276625990867615,0.1485234498977661,-0.10949264466762543,0.7563014030456543,3.7108852863311768,0.20480266213417053,9.603970527648926,0.5638443231582642,0.19808220863342285,0.6022633910179138
1781545727868772,821900226,0.6276659369468689,0.14851060509681702,-0.10949426144361496,0.7563008666038513,3.721987724304199,0.20804227888584137,9.598697662353516,0.4014213979244232,0.24308371543884277,0.6095629930496216
1781545727869974,821916893,0.6276642680168152,0.14851024746894836,-0.10950198024511337,0.7563012838363647,3.729193925857544,0.2098017781972885,9.581324577331543,0.4237172603607178,0.1486625075340271,0.6235860586166382
1781545727900061,821933560,0.6276658773422241,0.14850719273090363,-0.10950300842523575,0.7563003897666931,3.7160727977752686,0.21199041604995728,9.585015296936035,0.4493683874607086,0.19301089644432068,0.6117785573005676
1781545727900593,821950227,0.6276674866676331,0.14850565791130066,-0.10950224846601486,0.7562994956970215,3.7208213806152344,0.2148798555135727,9.593165397644043,0.4566168189048767,0.19248585402965546,0.5893802642822266
1781545727929182,821966894,0.6276640892028809,0.14850935339927673,-0.10949473828077316,0.7563027143478394,3.7124695777893066,0.20379221439361572,9.584586143493652,0.5282682776451111,0.1950727105140686,0.6344841718673706
1781545727930659,821983561,0.6276674270629883,0.1485111266374588,-0.10948482155799866,0.7563009858131409,3.7283177375793457,0.2150123119354248,9.594273567199707,0.5205972790718079,0.21552444994449615,0.576778769493103
1781545727960024,822000228,0.6276591420173645,0.1485079973936081,-0.1094679981470108,0.7563108801841736,3.71844482421875,0.20876306295394897,9.585737228393555,0.5528180599212646,0.2736012041568756,0.6760535836219788
1781545727961205,822016895,0.6276541948318481,0.14850284159183502,-0.10947155952453613,0.7563155293464661,3.7063169479370117,0.21234089136123657,9.59843635559082,0.43360379338264465,0.1934335082769394,0.6626325249671936
1781545727988905,822033562,0.6276648044586182,0.1485089361667633,-0.10946686565876007,0.7563061118125916,3.7067208290100098,0.21138592064380646,9.601426124572754,0.5005041360855103,0.16817937791347504,0.5092764496803284
1781545728032265,822050229,0.6276628971099854,0.14850585162639618,-0.10946949571371078,0.7563080191612244,3.7146780490875244,0.21212631464004517,9.58678913116455,0.43969959020614624,0.1861851066350937,0.629348874092102
1781545728035615,822066896,0.6276605725288391,0.14851067960262299,-0.10945604741573334,0.7563109397888184,3.7098679542541504,0.20073097944259644,9.58913803100586,0.5652402639389038,0.21540923416614532,0.6284908652305603
1781545728048846,822083563,0.6276581287384033,0.14850862324237823,-0.10946483165025711,0.7563119530677795,3.7288360595703125,0.20003528892993927,9.579142570495605,0.4127550423145294,0.15320876240730286,0.634164035320282
1781545728050150,822100230,0.6276605129241943,0.14850591123104095,-0.1094810888171196,0.7563083171844482,3.7135229110717773,0.1955505907535553,9.575384140014648,0.36421898007392883,0.12308824062347412,0.6002016067504883
1781545728078438,822116897,0.6276603937149048,0.14850017428398132,-0.10947676748037338,0.7563101053237915,3.7171385288238525,0.22277626395225525,9.598078727722168,0.4669514298439026,0.23142994940280914,0.6226382851600647
1781545728083331,822133564,0.6276593804359436,0.14851048588752747,-0.10947364568710327,0.7563093900680542,3.7182793617248535,0.20538873970508575,9.596351623535156,0.5287293195724487,0.13945475220680237,0.6067840456962585
1781545728108478,822150231,0.6276627779006958,0.14850956201553345,-0.10946957021951675,0.7563073039054871,3.719327211380005,0.19896943867206573,9.598454475402832,0.47787532210350037,0.20388348400592804,0.5812994241714478
1781545728110632,822166898,0.6276687383651733,0.14851456880569458,-0.10947828739881516,0.7563002109527588,3.700880765914917,0.20773465931415558,9.58932113647461,0.4303894340991974,0.11462321877479553,0.5548287034034729
1781545728138248,822183565,0.627661406993866,0.1485157459974289,-0.10948273539543152,0.7563053369522095,3.719302177429199,0.21607087552547455,9.609373092651367,0.46193140745162964,0.1556035429239273,0.6799851655960083
1781545728167836,822200232,0.6276662349700928,0.1485171616077423,-0.10948061943054199,0.7563014626502991,3.7169346809387207,0.21397878229618073,9.589646339416504,0.4758518636226654,0.18239441514015198,0.5674429535865784
1781545728169579,822216899,0.6276680827140808,0.1485166698694229,-0.1094706803560257,0.7563014626502991,3.7170419692993164,0.2059573531150818,9.616632461547852,0.5140789151191711,0.22784417867660522,0.593183696269989
1781545728197859,822233566,0.6276708841323853,0.14851170778274536,-0.1094619482755661,0.75630122423172,3.709832191467285,0.20341823995113373,9.58474349975586,0.4880179166793823,0.24655425548553467,0.5924921035766602
1781545728199632,822250233,0.6276783347129822,0.14850637316703796,-0.10945438593626022,0.7562973499298096,3.7099716663360596,0.22177492082118988,9.579743385314941,0.47072938084602356,0.24298125505447388,0.5498982071876526
1781545728227895,822266900,0.6276782155036926,0.14850977063179016,-0.10944508016109467,0.7562980651855469,3.708258628845215,0.21614238619804382,9.581989288330078,0.5293696522712708,0.2041396200656891,0.6014438271522522
1781545728229848,822283567,0.6276752352714539,0.14851050078868866,-0.10945350676774979,0.7562992572784424,3.717181444168091,0.20782771706581116,9.578367233276367,0.43379589915275574,0.14004382491111755,0.649416446685791
1781545728257895,822300234,0.6276742815971375,0.1485140472650528,-0.10946517437696457,0.7562975883483887,3.708258628845215,0.20391176640987396,9.580856323242188,0.42380690574645996,0.11017942428588867,0.6274790167808533
1781545728259817,822316901,0.6276684999465942,0.14850959181785583,-0.1094532161951065,0.7563049793243408,3.71093487739563,0.21017645299434662,9.581586837768555,0.5239782333374023,0.25916847586631775,0.6732617616653442
1781545728288128,822333568,0.6276656985282898,0.14849768579006195,-0.10944907367229462,0.756310224533081,3.715071439743042,0.20777764916419983,9.566855430603027,0.44279879331588745,0.26408615708351135,0.6514526009559631
1781545728317846,822350235,0.6276676058769226,0.14848773181438446,-0.10944218188524246,0.7563115954399109,3.7125251293182373,0.2056712508201599,9.588626861572266,0.4603818655014038,0.2655588388442993,0.6138659119606018
1781545728319729,822366902,0.6276775002479553,0.1484706997871399,-0.10943823307752609,0.7563073039054871,3.7160303592681885,0.20624728500843048,9.593212127685547,0.3993852436542511,0.28966042399406433,0.5498598217964172
1781545728348106,822383569,0.6276753544807434,0.14846590161323547,-0.10943755507469177,0.7563101053237915,3.7222166061401367,0.2162604033946991,9.599480628967285,0.45797431468963623,0.21042755246162415,0.6503897309303284
1781545728350793,822400236,0.6276788711547852,0.14847776293754578,-0.10942941904067993,0.756305992603302,3.706059455871582,0.2105027139186859,9.603854179382324,0.5516142845153809,0.15292701125144958,0.5556226372718811
1781545728378000,822416903,0.6276712417602539,0.1484837681055069,-0.1094246506690979,0.7563120126724243,3.7056174278259277,0.20632579922676086,9.593231201171875,0.5271285772323608,0.17061258852481842,0.6606987714767456
1781545728379774,822433570,0.6276679039001465,0.14847680926322937,-0.10942190885543823,0.7563165426254272,3.719012498855591,0.21705789864063263,9.593572616577148,0.4609837234020233,0.23134030401706696,0.6601352095603943
1781545728408142,822450237,0.6276713013648987,0.14853818714618683,-0.10955724120140076,0.7562820911407471,3.710447311401367,0.22265109419822693,9.59817886352539,0.4459618926048279,0.19990071654319763,0.640964150428772
1781545728409755,822466904,0.6276645660400391,0.14854766428470612,-0.1095653846859932,0.7562845945358276,3.7220160961151123,0.22139573097229004,9.587543487548828,0.4802572727203369,0.09522160142660141,0.6741710305213928
1781545728438414,822483571,0.6276607513427734,0.14854438602924347,-0.109562449157238,0.7562888264656067,3.7137553691864014,0.22358089685440063,9.58853816986084,0.4771581292152405,0.2132193148136139,0.6554096937179565
1781545728467840,822500238,0.6276584267616272,0.1485460251569748,-0.10956556349992752,0.756290078163147,3.7101504802703857,0.21627485752105713,9.612663269042969,0.46031782031059265,0.1593686193227768,0.6304885745048523
1781545728469472,822516905,0.6276566386222839,0.14855057001113892,-0.1095699891448021,0.7562898993492126,3.7119243144989014,0.20697300136089325,9.593515396118164,0.46488967537879944,0.13752099871635437,0.6201027035713196
1781545728497925,822533572,0.6276519298553467,0.14854863286018372,-0.10957160592079163,0.7562939524650574,3.6916472911834717,0.20888984203338623,9.585769653320312,0.4624052941799164,0.18591618537902832,0.6685875654220581
1781545728499463,822550239,0.627657949924469,0.14854660630226135,-0.10957590490579605,0.7562887668609619,3.7124035358428955,0.21291665732860565,9.574615478515625,0.42481860518455505,0.17308419942855835,0.5638059377670288
1781545728527959,822566906,0.6276528835296631,0.1485571563243866,-0.10958188027143478,0.7562900185585022,3.7124321460723877,0.2126556783914566,9.617852210998535,0.4872111678123474,0.09883300215005875,0.6405159831047058
1781545728529473,822583573,0.6276551485061646,0.1485627293586731,-0.10959132760763168,0.7562856078147888,3.73214054107666,0.2081853300333023,9.604097366333008,0.4395331144332886,0.10957752913236618,0.5965261459350586
1781545728557916,822600240,0.627649188041687,0.14856241643428802,-0.1095890998840332,0.7562910318374634,3.7194273471832275,0.20694439113140106,9.59921646118164,0.483458936214447,0.1938433200120926,0.6551536917686462
1781545728559386,822616907,0.6276429891586304,0.14855831861495972,-0.10959641635417938,0.7562958598136902,3.7266297340393066,0.20625418424606323,9.59320068359375,0.42248785495758057,0.1721109300851822,0.6787813901901245
1781545728588272,822633574,0.6276389956474304,0.1485527604818344,-0.10959755629301071,0.756300151348114,3.712639570236206,0.2119045853614807,9.589717864990234,0.4458978474140167,0.20735400915145874,0.6605963110923767
1781545728617831,822650241,0.6276406645774841,0.1485629677772522,-0.10958588868379593,0.7562984824180603,3.7170848846435547,0.20657245814800262,9.582990646362305,0.5672892928123474,0.17861655354499817,0.5744223594665527
1781545728619433,822666908,0.6276460886001587,0.14856359362602234,-0.10957732051610947,0.7562950253486633,3.711656093597412,0.20838560163974762,9.5958833694458,0.5096991062164307,0.21656174957752228,0.5682368278503418
1781545728647877,822683575,0.6276454329490662,0.14856576919555664,-0.109581857919693,0.7562944889068604,3.7123427391052246,0.2123517394065857,9.597360610961914,0.4571162462234497,0.15017364919185638,0.6272357702255249
1781545728649460,822700242,0.6276498436927795,0.14855599403381348,-0.10958047956228256,0.7562929391860962,3.713172435760498,0.2044195830821991,9.58599853515625,0.4249594807624817,0.2403431534767151,0.5869470238685608
1781545728677973,822716909,0.627648115158081,0.14855033159255981,-0.10959358513355255,0.7562935948371887,3.705504894256592,0.21051715314388275,9.58842658996582,0.37954816222190857,0.15429729223251343,0.648545503616333
1781545728679600,822733576,0.6276534199714661,0.14854347705841064,-0.10958859324455261,0.7562912106513977,3.7145135402679443,0.2100592702627182,9.595844268798828,0.4585249722003937,0.2408810257911682,0.5812225937843323
1781545728708053,822750243,0.6276469826698303,0.14854468405246735,-0.10958174616098404,0.75629723072052,3.7074742317199707,0.213096484541893,9.592517852783203,0.5189965963363647,0.20654723048210144,0.6626710295677185
1781545728709693,822766910,0.6276451349258423,0.14855128526687622,-0.1095762550830841,0.7562984824180603,3.715933322906494,0.20982323586940765,9.579568862915039,0.5271285772323608,0.17107360064983368,0.6173108220100403
1781545728738289,822783577,0.6276416182518005,0.14856816828250885,-0.109587661921978,0.7562963962554932,3.7122819423675537,0.20677272975444794,9.611825942993164,0.4852645695209503,0.040384821593761444,0.628221869468689
1781545728767823,822800244,0.6276412606239319,0.1485806256532669,-0.10958309471607208,0.7562949061393738,3.7113986015319824,0.21286658942699432,9.591673851013184,0.54377681016922,0.1348956972360611,0.592978835105896
1781545728770076,822816911,0.6276410222053528,0.14857907593250275,-0.1095820814371109,0.7562955021858215,3.7143704891204834,0.20805658400058746,9.610448837280273,0.46357065439224243,0.1946757286787033,0.6095630526542664
1781545728797879,822833578,0.6276478171348572,0.14858485758304596,-0.10958533734083176,0.7562881708145142,3.7044644355773926,0.1990695744752884,9.598490715026855,0.4659911096096039,0.13566409051418304,0.5547391176223755
1781545728799866,822850245,0.6276363134384155,0.14858219027519226,-0.10957982391119003,0.7562990784645081,3.7227892875671387,0.21983623504638672,9.591887474060059,0.5024250745773315,0.22185078263282776,0.7114375233650208
1781545728828009,822866912,0.6276377439498901,0.1485786736011505,-0.10958216339349747,0.7562982439994812,3.711784601211548,0.22316265106201172,9.579483032226562,0.43738171458244324,0.19024474918842316,0.605375349521637
1781545728830026,822883579,0.6276392936706543,0.14858415722846985,-0.10957647114992142,0.756296694278717,3.722155809402466,0.21322062611579895,9.581006050109863,0.518343448638916,0.17766889929771423,0.5898156762123108
1781545728857918,822900246,0.6276280283927917,0.1485806107521057,-0.1095796748995781,0.7563062906265259,3.7199490070343018,0.2164328247308731,9.592565536499023,0.4547855257987976,0.1877475082874298,0.7193903923034668
1781545728859515,822916913,0.6276302337646484,0.14858569204807281,-0.1095866858959198,0.7563024759292603,3.7243874073028564,0.21467256546020508,9.58454704284668,0.4490226209163666,0.12288331985473633,0.5917366147041321
1781545728888137,822933580,0.6276307702064514,0.14859068393707275,-0.10958541929721832,0.75630122423172,3.7215728759765625,0.20541734993457794,9.581392288208008,0.4946132302284241,0.16055962443351746,0.6005730032920837
1781545728917870,822950247,0.6276300549507141,0.14858964085578918,-0.10958372056484222,0.7563021779060364,3.722777843475342,0.20657584071159363,9.580366134643555,0.4740590453147888,0.19523920118808746,0.6220875978469849
1781545728919520,822966914,0.6276288628578186,0.1485937535762787,-0.1095815896987915,0.7563026547431946,3.718139886856079,0.21081027388572693,9.573417663574219,0.49990230798721313,0.16933196783065796,0.6216394305229187
1781545728947914,822983581,0.6276265978813171,0.1485990732908249,-0.10958224534988403,0.7563035488128662,3.7065885066986084,0.2100769728422165,9.589653968811035,0.4926282465457916,0.15083958208560944,0.6321917772293091
1781545728949562,823000248,0.6276203989982605,0.1485978215932846,-0.10958509892225266,0.7563084959983826,3.705047845840454,0.20185552537441254,9.608817100524902,0.4604203402996063,0.17665718495845795,0.6793192028999329
1781545728977939,823016915,0.6276124715805054,0.14859843254089355,-0.10959465801715851,0.7563135623931885,3.7108800411224365,0.21110351383686066,9.583291053771973,0.4365236163139343,0.13698312640190125,0.6975298523902893
1781545728979555,823033582,0.6276092529296875,0.14859537780284882,-0.1095997616648674,0.756316065788269,3.7121174335479736,0.214890718460083,9.569862365722656,0.43602418899536133,0.17604248225688934,0.6537320613861084
1781545729007937,823050249,0.6276085376739502,0.14859260618686676,-0.10959447920322418,0.7563178539276123,3.730095148086548,0.2081388384103775,9.603739738464355,0.4858408570289612,0.22041645646095276,0.62098628282547
1781545729009773,823066916,0.6276074051856995,0.14859339594841003,-0.1095956563949585,0.7563186287879944,3.7218947410583496,0.21887120604515076,9.573063850402832,0.47020432353019714,0.17277684807777405,0.6318332552909851
1781545729038126,823083583,0.6276055574417114,0.148586705327034,-0.1096058338880539,0.756320059299469,3.7234110832214355,0.21034161746501923,9.577086448669434,0.38971641659736633,0.17285369336605072,0.646547794342041
1781545729067834,823100250,0.6276021003723145,0.1485869586467743,-0.10959642380475998,0.7563242316246033,3.705963134765625,0.2084253579378128,9.583596229553223,0.5237284302711487,0.22288168966770172,0.637948215007782
1781545729069430,823116917,0.6275956034660339,0.14858612418174744,-0.10959861427545547,0.7563294768333435,3.7177157402038574,0.21290509402751923,9.605212211608887,0.46450549364089966,0.17736153304576874,0.6771805286407471
1781545729097883,823133584,0.627597987651825,0.14858940243721008,-0.1095934584736824,0.7563275694847107,3.718104839324951,0.2145976573228836,9.579161643981934,0.5032063126564026,0.18688945472240448,0.5817604064941406
1781545729099805,823150251,0.6276007890701294,0.14858318865299225,-0.10958882421255112,0.7563270926475525,3.718958854675293,0.20161963999271393,9.601097106933594,0.45876821875572205,0.23572008311748505,0.5907248854637146
1781545729127884,823166918,0.6276057362556458,0.14858190715312958,-0.10959888994693756,0.7563217282295227,3.716172695159912,0.20003864169120789,9.579708099365234,0.3969520032405853,0.14328384399414062,0.5664952397346497
1781545729129706,823183585,0.6276019215583801,0.148582324385643,-0.10959117859601974,0.7563258409500122,3.7189667224884033,0.21004453301429749,9.58447551727295,0.5204693078994751,0.21458962559700012,0.6535913348197937
1781545729157991,823200252,0.6275985240936279,0.14858700335025787,-0.10959553718566895,0.7563272714614868,3.7187657356262207,0.19947011768817902,9.61189079284668,0.4659014642238617,0.13746976852416992,0.6296818256378174
1781545729160020,823216919,0.6275914907455444,0.1485866904258728,-0.10960039496421814,0.7563324570655823,3.7191662788391113,0.21074248850345612,9.584564208984375,0.4499574601650238,0.1625445932149887,0.6740686297416687
1781545729188110,823233586,0.6275892853736877,0.1485891342163086,-0.10959643125534058,0.7563344240188599,3.708641290664673,0.20832838118076324,9.588262557983398,0.5036289095878601,0.18653088808059692,0.6309880614280701
1781545729217891,823250253,0.6275875568389893,0.1485886126756668,-0.1095961481332779,0.7563360929489136,3.7163803577423096,0.21757304668426514,9.595515251159668,0.46929505467414856,0.18595458567142487,0.6270180344581604
1781545729219330,823266920,0.6275933384895325,0.14858977496623993,-0.10959972441196442,0.7563304901123047,3.7184407711029053,0.22255109250545502,9.602117538452148,0.4490354359149933,0.15930460393428802,0.5750115513801575
1781545729247907,823283587,0.6276014447212219,0.1485975682735443,-0.1096009612083435,0.7563220858573914,3.720885992050171,0.20786340534687042,9.571189880371094,0.479450523853302,0.13349978625774384,0.5279737114906311
1781545729249937,823300254,0.6275967359542847,0.14860057830810547,-0.10959883034229279,0.7563256621360779,3.733778476715088,0.21043118834495544,9.572369575500488,0.49640610814094543,0.1752741038799286,0.6433077454566956
1781545729278924,823316921,0.6275959014892578,0.14860573410987854,-0.10960236936807632,0.7563248872756958,3.730635166168213,0.21547721326351166,9.60386848449707,0.4706653952598572,0.13822534680366516,0.6106515526771545
1781545729279602,823333588,0.6275940537452698,0.148598775267601,-0.10960793495178223,0.7563267946243286,3.7261862754821777,0.21405746042728424,9.591134071350098,0.4146503806114197,0.19465011358261108,0.6475979089736938
1781545729307915,823350255,0.6276012063026428,0.14859628677368164,-0.1096080020070076,0.7563214898109436,3.71278977394104,0.2120690941810608,9.598164558410645,0.45003437995910645,0.19482940435409546,0.5697993636131287
1781545729309896,823366922,0.6276021003723145,0.14858902990818024,-0.10960372537374496,0.7563226819038391,3.7085840702056885,0.2285589873790741,9.59724235534668,0.45514407753944397,0.23976688086986542,0.6062845587730408
1781545729338107,823383589,0.6275951862335205,0.14859101176261902,-0.10960635542869568,0.7563276886940002,3.7181363105773926,0.2169005423784256,9.59312915802002,0.4724069833755493,0.1599833369255066,0.6714177131652832
1781545729368133,823400256,0.6275961399078369,0.14860987663269043,-0.10958488285541534,0.7563262581825256,3.7141871452331543,0.2123672515153885,9.5873384475708,0.6588546633720398,0.17563267052173615,0.5647664070129395
1781545729369526,823416923,0.6275935173034668,0.14860595762729645,-0.10958568751811981,0.7563291788101196,3.716655731201172,0.21420766413211823,9.597081184387207,0.451481431722641,0.19988788664340973,0.6455744504928589
1781545729398286,823433590,0.6275870203971863,0.14861242473125458,-0.10958156734704971,0.7563338875770569,3.7100090980529785,0.21904250979423523,9.594330787658691,0.5260527729988098,0.1658102124929428,0.6573818922042847
1781545729399465,823450257,0.627583920955658,0.1486024260520935,-0.10957205295562744,0.7563397884368896,3.716876268386841,0.217652827501297,9.580222129821777,0.47713252902030945,0.2783268094062805,0.6406311988830566
1781545729428233,823466924,0.6275771260261536,0.14860135316848755,-0.1095697283744812,0.7563459873199463,3.716944456100464,0.21560008823871613,9.586285591125488,0.48736485838890076,0.19872252643108368,0.6762456893920898
1781545729429905,823483591,0.6275861859321594,0.1486048698425293,-0.10957566648721695,0.7563368678092957,3.724562644958496,0.2195219099521637,9.613900184631348,0.4402759075164795,0.13565126061439514,0.541394829750061
1781545729457909,823500258,0.6275859475135803,0.14861872792243958,-0.10957134515047073,0.7563349604606628,3.707897663116455,0.19468872249126434,9.610295295715332,0.5514222383499146,0.12648190557956696,0.5979220271110535
1781545729459485,823516925,0.6275820732116699,0.14862224459648132,-0.10956220328807831,0.7563387155532837,3.710721492767334,0.21700958907604218,9.589649200439453,0.5411258935928345,0.20410120487213135,0.6464709639549255
1781545729488211,823533592,0.6275764107704163,0.14864477515220642,-0.10955917090177536,0.756339430809021,3.7102346420288086,0.207272008061409,9.573935508728027,0.5890472531318665,0.07443690299987793,0.6297842264175415
1781545729517945,823550259,0.6275824904441833,0.14865869283676147,-0.10955686867237091,0.7563320994377136,3.7154040336608887,0.22333772480487823,9.601505279541016,0.5324304103851318,0.11677470803260803,0.5494628548622131
1781545729519761,823566926,0.6275785565376282,0.14865615963935852,-0.1095561608672142,0.7563358545303345,3.7152459621429443,0.20820939540863037,9.601309776306152,0.4749426543712616,0.1994652897119522,0.6706492900848389
1781545729547935,823583593,0.6275818347930908,0.14865908026695251,-0.10954886674880981,0.7563336491584778,3.701460361480713,0.21916785836219788,9.587024688720703,0.5128814578056335,0.19830630719661713,0.5772205591201782
1781545729549667,823600260,0.6275812983512878,0.14864949882030487,-0.10954718291759491,0.7563362121582031,3.7243409156799316,0.20756307244300842,9.57827377319336,0.4346986711025238,0.2410154938697815,0.6259231567382812
1781545729577922,823616927,0.6275765299797058,0.14864377677440643,-0.10955000668764114,0.7563409209251404,3.7227602005004883,0.215345099568367,9.587146759033203,0.4360113739967346,0.20045137405395508,0.6621970534324646
1781545729579637,823633594,0.6275731921195984,0.14865098893642426,-0.1095452606678009,0.7563429474830627,3.7144992351531982,0.21201902627944946,9.575698852539062,0.5284348130226135,0.16440153121948242,0.6292080283164978
1781545729607947,823650261,0.627572238445282,0.14865419268608093,-0.1095409169793129,0.7563437223434448,3.7254889011383057,0.20901517570018768,9.579411506652832,0.5082008242607117,0.18408487737178802,0.6223821640014648
1781545729609726,823666928,0.6275665163993835,0.14865230023860931,-0.10953103005886078,0.7563503384590149,3.7176411151885986,0.20971794426441193,9.585062026977539,0.5262576937675476,0.23712877929210663,0.6759639382362366
1781545729638478,823683595,0.627571702003479,0.1486411988735199,-0.10953787714242935,0.7563471794128418,3.714750051498413,0.2111823856830597,9.594456672668457,0.37564221024513245,0.21069645881652832,0.5868061184883118
1781545729668175,823700262,0.6275693774223328,0.14863966405391693,-0.10953009128570557,0.756350576877594,3.719677686691284,0.2065402716398239,9.585519790649414,0.5055882930755615,0.22493712604045868,0.6301940083503723
1781545729669454,823716929,0.627573549747467,0.1486351191997528,-0.10953111201524734,0.7563478946685791,3.7074828147888184,0.21652862429618835,9.599359512329102,0.4390720725059509,0.20155271887779236,0.5935934782028198
1781545729698209,823733596,0.6275646686553955,0.14865043759346008,-0.10952993482351303,0.756352424621582,3.7191405296325684,0.20965062081813812,9.60509967803955,0.5509740114212036,0.10498005151748657,0.6614799499511719
1781545729699447,823750263,0.6275643706321716,0.14865124225616455,-0.10952923446893692,0.7563526034355164,3.7180898189544678,0.20637577772140503,9.57349967956543,0.4771069288253784,0.18076801300048828,0.6198337078094482
1781545729728217,823766930,0.6275651454925537,0.14864325523376465,-0.10953113436698914,0.7563532590866089,3.716151475906372,0.2092188596725464,9.593486785888672,0.4261377155780792,0.2165105640888214,0.6283884048461914
1781545729729527,823783597,0.6275656819343567,0.14864301681518555,-0.10952366888523102,0.7563539147377014,3.7101755142211914,0.21175438165664673,9.602452278137207,0.5072787404060364,0.21645934879779816,0.6112150549888611
1781545729758215,823800264,0.6275638341903687,0.14863832294940948,-0.10953355580568314,0.7563549280166626,3.720331907272339,0.21145041286945343,9.591652870178223,0.40015360713005066,0.16328735649585724,0.6453439593315125
1781545729759594,823816931,0.6275591254234314,0.14863957464694977,-0.10954467952251434,0.756356954574585,3.713308334350586,0.20825685560703278,9.59188461303711,0.422539085149765,0.12603367865085602,0.6600584387779236
1781545729788426,823833598,0.6275622844696045,0.1486397683620453,-0.10954105854034424,0.756354808807373,3.716906785964966,0.19746047258377075,9.570110321044922,0.4853285849094391,0.19682717323303223,0.5921592116355896
1781545729817877,823850265,0.6275666952133179,0.14864099025726318,-0.1095438003540039,0.7563505172729492,3.721623420715332,0.20743447542190552,9.598995208740234,0.44959890842437744,0.1624293327331543,0.5712080001831055
1781545729819730,823866932,0.6275634169578552,0.14863839745521545,-0.10953870415687561,0.756354570388794,3.7285306453704834,0.20867334306240082,9.594367980957031,0.49202632904052734,0.21911023557186127,0.652054488658905
1781545729848247,823883599,0.6275601983070374,0.14862671494483948,-0.10953867435455322,0.7563595771789551,3.7289936542510986,0.2057749629020691,9.583112716674805,0.42736706137657166,0.245452880859375,0.6678830981254578
1781545729849861,823900266,0.6275517344474792,0.14864107966423035,-0.10953253507614136,0.7563645243644714,3.731957197189331,0.20976832509040833,9.578252792358398,0.569901704788208,0.13219353556632996,0.6523233652114868
1781545729877906,823916933,0.6275514364242554,0.14864611625671387,-0.10952967405319214,0.7563642263412476,3.7158725261688232,0.20531721413135529,9.583724021911621,0.50645911693573,0.16757747530937195,0.6132128238677979
1781545729880208,823933600,0.6275433897972107,0.14864428341388702,-0.10952729731798172,0.7563715577125549,3.7171661853790283,0.2082662433385849,9.56042194366455,0.4860585629940033,0.20311510562896729,0.6877970099449158
1781545729907914,823950267,0.627545952796936,0.14865073561668396,-0.10952839255332947,0.7563681602478027,3.7027335166931152,0.20588940382003784,9.57933235168457,0.4849572479724884,0.142118439078331,0.5832971930503845
1781545729909813,823966934,0.627538800239563,0.14865894615650177,-0.10953257977962494,0.756371796131134,3.7181434631347656,0.20671908557415009,9.610860824584961,0.49110421538352966,0.11936155706644058,0.6635417342185974
1781545729938117,823983601,0.627543568611145,0.1486622393131256,-0.10952457040548325,0.7563683986663818,3.708873748779297,0.2212921380996704,9.582261085510254,0.513118326663971,0.19917073845863342,0.5577613115310669
1781545729967874,824000268,0.6275370121002197,0.14865857362747192,-0.10951322317123413,0.7563762664794922,3.7215425968170166,0.20469391345977783,9.585905075073242,0.5219932794570923,0.2527269124984741,0.6707901954650879
1781545729969851,824016935,0.627536416053772,0.1486581414937973,-0.10951119661331177,0.7563770413398743,3.7149856090545654,0.21499085426330566,9.5907621383667,0.4816659986972809,0.1934463083744049,0.6299635171890259
1781545729997896,824033602,0.6275393962860107,0.14864890277385712,-0.10951100289821625,0.7563764452934265,3.726139783859253,0.22252950072288513,9.601862907409668,0.42358919978141785,0.2320830523967743,0.5998942255973816
1781545729999697,824050269,0.6275428533554077,0.14864304661750793,-0.10951510071754456,0.7563741207122803,3.716784954071045,0.21366070210933685,9.593252182006836,0.4178006947040558,0.19502148032188416,0.6005473136901855
1781545730027920,824066936,0.6275390982627869,0.14865119755268097,-0.10952064394950867,0.7563748359680176,3.7210793495178223,0.1999744474887848,9.582904815673828,0.47737589478492737,0.11331699043512344,0.632076621055603
1781545730029892,824083603,0.6275326609611511,0.1486567258834839,-0.10952296108007431,0.7563786506652832,3.7160725593566895,0.20362892746925354,9.61104679107666,0.49460041522979736,0.14251546561717987,0.674401581287384
1781545730057927,824100270,0.6275241374969482,0.14865632355213165,-0.10953822731971741,0.7563835978507996,3.712721824645996,0.2057928442955017,9.559523582458496,0.4017159938812256,0.11682591587305069,0.7024219036102295
1781545730059668,824116937,0.6275269985198975,0.14865779876708984,-0.10953080654144287,0.7563819885253906,3.7245233058929443,0.21284513175487518,9.58114242553711,0.510326623916626,0.2068033367395401,0.5869854092597961
1781545730088175,824133604,0.6275262832641602,0.1486535519361496,-0.10952707380056381,0.7563839554786682,3.7129650115966797,0.22822996973991394,9.565868377685547,0.4701659083366394,0.22123607993125916,0.6236244440078735
1781545730117874,824150271,0.627521812915802,0.14865416288375854,-0.10952648520469666,0.7563877105712891,3.7266225814819336,0.21392513811588287,9.588988304138184,0.48073112964630127,0.18163883686065674,0.6527459621429443
1781545730119784,824166938,0.6275246739387512,0.14865608513355255,-0.10952116549015045,0.7563857436180115,3.7270302772521973,0.21534846723079681,9.568231582641602,0.498788058757782,0.19494466483592987,0.5811713933944702
1781545730148006,824183605,0.627524197101593,0.14866381883621216,-0.10951605439186096,0.7563853859901428,3.7111477851867676,0.2186170071363449,9.59300422668457,0.5269877314567566,0.16281352937221527,0.6016743779182434
1781545730149954,824200272,0.6275346875190735,0.1486714780330658,-0.109517902135849,0.7563749551773071,3.7127223014831543,0.21247687935829163,9.575041770935059,0.47348275780677795,0.1313098967075348,0.5152698755264282
1781545730177918,824216939,0.6275289058685303,0.14867956936359406,-0.10952296108007431,0.7563774585723877,3.7135727405548096,0.21271269023418427,9.57665729522705,0.4851493537425995,0.1162240207195282,0.6570233106613159
1781545730179810,824233606,0.6275295615196228,0.14867334067821503,-0.10951822996139526,0.7563788294792175,3.7200491428375244,0.209969624876976,9.574190139770508,0.4677198827266693,0.23653967678546906,0.6197952628135681
1781545730207910,824250273,0.6275251507759094,0.14868685603141785,-0.10952211916446686,0.7563791275024414,3.720871925354004,0.21123583614826202,9.585683822631836,0.5123500227928162,0.0918535441160202,0.6373656392097473
1781545730209821,824266940,0.627531111240387,0.14866983890533447,-0.1095176562666893,0.7563781142234802,3.717914581298828,0.22120603919029236,9.596441268920898,0.41126951575279236,0.2931821942329407,0.5876641869544983
1781545730238119,824283607,0.627524733543396,0.1486680656671524,-0.10951513051986694,0.7563841342926025,3.7130672931671143,0.21904893219470978,9.595257759094238,0.4811665415763855,0.20319193601608276,0.6654755473136902
1781545730268162,824300274,0.6275208592414856,0.14867593348026276,-0.1095140352845192,0.7563859820365906,3.7158010005950928,0.2118867039680481,9.571654319763184,0.5155131816864014,0.14476937055587769,0.6427826881408691
1781545730269615,824316941,0.6275184750556946,0.14868947863578796,-0.10950380563735962,0.7563868165016174,3.7180323600769043,0.20372000336647034,9.589651107788086,0.5838735103607178,0.15461744368076324,0.6136226058006287
1781545730297912,824333608,0.6275230646133423,0.14870157837867737,-0.10951068997383118,0.7563796043395996,3.7062060832977295,0.21575616300106049,9.589739799499512,0.47603121399879456,0.08548878878355026,0.5627942085266113
1781545730300184,824350275,0.6275197863578796,0.1486956775188446,-0.10950890928506851,0.7563837766647339,3.720353364944458,0.20110824704170227,9.594123840332031,0.458396852016449,0.22195324301719666,0.6531174182891846
1781545730327902,824366942,0.6275166273117065,0.14869573712348938,-0.10950362682342529,0.7563871741294861,3.722567558288574,0.20374798774719238,9.5878324508667,0.5024250745773315,0.20553550124168396,0.6429235339164734
1781545730329902,824383609,0.6275162696838379,0.14869453012943268,-0.10950880497694016,0.7563869953155518,3.713240385055542,0.20902231335639954,9.604569435119629,0.43820124864578247,0.1654900461435318,0.626992404460907
1781545730357899,824400276,0.6275131106376648,0.14868928492069244,-0.10950634628534317,0.7563910484313965,3.712371349334717,0.20340393483638763,9.59083366394043,0.4679375886917114,0.22160746157169342,0.6570873856544495
1781545730359841,824416943,0.6275131702423096,0.14868967235088348,-0.10950836539268494,0.7563905119895935,3.721207857131958,0.22472155094146729,9.598358154296875,0.45724430680274963,0.17042049765586853,0.611368715763092
1781545730388595,824433610,0.6275222897529602,0.14869563281536102,-0.10951218754053116,0.7563812136650085,3.730245351791382,0.21013793349266052,9.59097671508789,0.45798707008361816,0.13169409334659576,0.5268596410751343
1781545730417849,824450277,0.627587080001831,0.1485281139612198,-0.10947968065738678,0.7563650012016296,3.706209659576416,0.22217902541160583,9.57925033569336,0.4735596477985382,0.16675786674022675,0.6060669422149658
1781545730419973,824466944,0.6275908350944519,0.14852973818778992,-0.10948270559310913,0.7563612461090088,3.7279815673828125,0.21886031329631805,9.584986686706543,0.45277491211891174,0.15833130478858948,0.5788662433624268
1781545730447958,824483611,0.6275882720947266,0.1485392451286316,-0.10948077589273453,0.756361722946167,3.7151286602020264,0.22161398828029633,9.565817832946777,0.5218139290809631,0.13844303786754608,0.6203715801239014
1781545730449927,824500278,0.6275811195373535,0.14854317903518677,-0.10948190093040466,0.7563667893409729,3.706488609313965,0.22081291675567627,9.602860450744629,0.48621225357055664,0.1549888551235199,0.6584961414337158
1781545730478275,824516945,0.6275824904441833,0.1485414206981659,-0.1094854399561882,0.7563654184341431,3.723203659057617,0.221413716673851,9.594499588012695,0.4398660957813263,0.1745697557926178,0.6059516072273254
1781545730479675,824533612,0.6275826692581177,0.14854131639003754,-0.10948307067155838,0.7563656568527222,3.723529100418091,0.2086430788040161,9.580738067626953,0.47964903712272644,0.19195438921451569,0.6132193207740784
1781545730508311,824550279,0.6275855302810669,0.14854808151721954,-0.10948497802019119,0.7563616633415222,3.721007823944092,0.21732254326343536,9.5914306640625,0.4875953495502472,0.13584335148334503,0.5921207666397095
1781545730510089,824566946,0.627585232257843,0.1485663205385208,-0.10948523133993149,0.75635826587677,3.715468406677246,0.21319201588630676,9.605413436889648,0.545992374420166,0.08153162896633148,0.5949125289916992
1781545730538421,824583613,0.6275886297225952,0.14857158064842224,-0.10947605222463608,0.7563557028770447,3.709599733352661,0.2056712508201599,9.609569549560547,0.5347099304199219,0.19319020211696625,0.5748322606086731
1781545730567851,824600280,0.6276001334190369,0.14856576919555664,-0.10947711020708084,0.7563471794128418,3.7079017162323,0.22336293756961823,9.574122428894043,0.4228592813014984,0.20681613683700562,0.5332627296447754
1781545730569847,824616947,0.6275966763496399,0.1485671103000641,-0.10946106910705566,0.7563520669937134,3.711353063583374,0.21174576878547668,9.612045288085938,0.5665978193283081,0.24560658633708954,0.6413741111755371
1781545730597913,824633614,0.6276014447212219,0.1485634744167328,-0.109470434486866,0.7563475966453552,3.71844744682312,0.2056247740983963,9.57835578918457,0.3957225978374481,0.15836971998214722,0.5830667018890381
1781545730599854,824650281,0.6276029944419861,0.148556187748909,-0.10947339981794357,0.7563472986221313,3.724644899368286,0.20875751972198486,9.579568862915039,0.4173525273799896,0.2068033367395401,0.6075268387794495
1781545730627928,824666948,0.6276012063026428,0.14856840670108795,-0.10947714745998383,0.7563459277153015,3.723407030105591,0.2079850137233734,9.583731651306152,0.5029246211051941,0.09853845834732056,0.6136354804039001
1781545730630205,824683615,0.6275978684425354,0.14857080578804016,-0.10946442931890488,0.756350040435791,3.7198190689086914,0.2095751017332077,9.589005470275879,0.5509227514266968,0.224949911236763,0.6339975595474243
1781545730658286,824700282,0.6276019215583801,0.14856939017772675,-0.10946175456047058,0.7563473582267761,3.7201955318450928,0.2163747102022171,9.586209297180176,0.47112637758255005,0.20018242299556732,0.5824775695800781
1781545730659800,824716949,0.6275975108146667,0.14856858551502228,-0.10947161167860031,0.7563496828079224,3.7146244049072266,0.21185463666915894,9.598176002502441,0.4177367091178894,0.1416190266609192,0.6532710790634155
1781545730688487,824733616,0.6275967359542847,0.14856913685798645,-0.10947518795728683,0.7563496828079224,3.715003490447998,0.21235160529613495,9.579154014587402,0.456104576587677,0.16214759647846222,0.628862202167511
1781545730718262,824750283,0.6275944113731384,0.14856596291065216,-0.10947339981794357,0.756352424621582,3.718679666519165,0.22712472081184387,9.582301139831543,0.46920540928840637,0.20621423423290253,0.64124596118927
1781545730719758,824766950,0.6276015043258667,0.14857438206672668,-0.10948565602302551,0.7563432455062866,3.7208402156829834,0.20892566442489624,9.568136215209961,0.4257790744304657,0.08007169514894485,0.5423040986061096
1781545730748292,824783617,0.6276042461395264,0.1485682874917984,-0.10948912799358368,0.7563415765762329,3.712782621383667,0.2204660326242447,9.594616889953613,0.4229104816913605,0.19828709959983826,0.6072706580162048
1781545730749539,824800284,0.6276057362556458,0.14856532216072083,-0.1094973087310791,0.7563397288322449,3.727212429046631,0.2061038613319397,9.585920333862305,0.4097583293914795,0.16021382808685303,0.6079750657081604
1781545730777934,824816951,0.6276099681854248,0.1485651433467865,-0.10948771238327026,0.756337583065033,3.7186806201934814,0.2092047780752182,9.5813570022583,0.5140276551246643,0.22446328401565552,0.5791223049163818
1781545730779729,824833618,0.6276078820228577,0.1485668271780014,-0.10949238389730453,0.7563382387161255,3.7120816707611084,0.20492739975452423,9.596445083618164,0.4535176157951355,0.15115976333618164,0.63157719373703
1781545730807931,824850285,0.6276065111160278,0.14855793118476868,-0.10950038582086563,0.7563401460647583,3.7152252197265625,0.20942626893520355,9.59011459350586,0.3913044035434723,0.19362559914588928,0.6449213027954102
1781545730809701,824866952,0.6276059150695801,0.14854535460472107,-0.10949970781803131,0.7563431859016418,3.718808650970459,0.21338871121406555,9.598711967468262,0.4188380539417267,0.25174081325531006,0.6373015642166138
1781545730838122,824883619,0.6276198625564575,0.14852796494960785,-0.10950729250907898,0.7563338279724121,3.717331647872925,0.20811738073825836,9.569201469421387,0.33700549602508545,0.23980529606342316,0.5341207981109619
1781545730867871,824900286,0.6276167035102844,0.14852368831634521,-0.10949767380952835,0.7563387751579285,3.716078281402588,0.20364470779895782,9.594572067260742,0.5077269077301025,0.2473738193511963,0.6459202170372009
1781545730869649,824916953,0.6276146769523621,0.14852170646190643,-0.10950110852718353,0.7563402056694031,3.721494197845459,0.20503826439380646,9.565872192382812,0.4452703595161438,0.17642666399478912,0.6378521919250488
1781545730897918,824933620,0.6276090145111084,0.14851506054401398,-0.10950974375009537,0.7563450932502747,3.7247912883758545,0.207838237285614,9.593108177185059,0.4062238037586212,0.1791672259569168,0.6831098794937134
1781545730899577,824950287,0.6276087164878845,0.14851601421833038,-0.10950980335474014,0.7563452124595642,3.7244553565979004,0.2133815586566925,9.596505165100098,0.4730473756790161,0.17561988532543182,0.6170418858528137
1781545730928416,824966954,0.6276079416275024,0.14851464331150055,-0.10950522869825363,0.7563468217849731,3.7239153385162354,0.21323135495185852,9.57364273071289,0.4880179762840271,0.20887796580791473,0.6225742697715759
1781545730929710,824983621,0.6276060342788696,0.14852049946784973,-0.10949535667896271,0.7563486695289612,3.7131876945495605,0.20470337569713593,9.569628715515137,0.5475290417671204,0.19352313876152039,0.616875410079956
1781545730958451,825000288,0.6276087760925293,0.1485324651002884,-0.10948976874351501,0.7563448548316956,3.7186949253082275,0.21887117624282837,9.591724395751953,0.5446348190307617,0.14085063338279724,0.5723349452018738
1781545730959461,825016955,0.6276161670684814,0.1485392153263092,-0.10948507487773895,0.7563379406929016,3.715571641921997,0.21734032034873962,9.601605415344238,0.5133233666419983,0.16502903401851654,0.5467351078987122
1781545730988126,825033622,0.6276177763938904,0.14853531122207642,-0.10948631167411804,0.7563372850418091,3.7156078815460205,0.21882812678813934,9.592045783996582,0.4447965621948242,0.19664789736270905,0.6127390265464783
1781545731045063,825050289,0.6276252269744873,0.148530974984169,-0.10949039459228516,0.7563313245773315,3.7072930335998535,0.20980879664421082,9.576871871948242,0.4186587929725647,0.18545515835285187,0.5639724731445312
1781545731047108,825066956,0.6276218891143799,0.1485304981470108,-0.10948446393013,0.7563350200653076,3.7316131591796875,0.2130853831768036,9.571511268615723,0.508879542350769,0.21059401333332062,0.6560500860214233
1781545731051793,825083623,0.6276273727416992,0.14852313697338104,-0.10948747396469116,0.7563314437866211,3.712235927581787,0.20543184876441956,9.576593399047852,0.41666096448898315,0.20693138241767883,0.5881891846656799
1781545731052866,825100290,0.62762850522995,0.14852391183376312,-0.10948751121759415,0.7563304305076599,3.714860439300537,0.2268209457397461,9.579568862915039,0.4700506925582886,0.17659315466880798,0.6049911379814148
1781545731078441,825116957,0.6276271939277649,0.1485319286584854,-0.10949239879846573,0.7563291192054749,3.715357542037964,0.22122418880462646,9.591134071350098,0.47498106956481934,0.11575020104646683,0.6075908541679382
1781545731079957,825133624,0.6276276707649231,0.14853745698928833,-0.10949116200208664,0.7563279271125793,3.718944549560547,0.20691578090190887,9.582904815673828,0.5017848014831543,0.1569226086139679,0.6137122511863708
1781545731108680,825150291,0.6276264190673828,0.14854051172733307,-0.10949067771434784,0.7563283443450928,3.71811842918396,0.20788849890232086,9.574447631835938,0.4871984124183655,0.16678349673748016,0.6234707236289978
1781545731109771,825166958,0.6276323199272156,0.14853717386722565,-0.10949531942605972,0.7563233971595764,3.7187585830688477,0.20445892214775085,9.602652549743652,0.4199009835720062,0.1776304692029953,0.5697608590126038
1781545731138197,825183625,0.6276402473449707,0.14853540062904358,-0.10949158668518066,0.7563178539276123,3.723010540008545,0.22408157587051392,9.592843055725098,0.470345139503479,0.20664966106414795,0.5531765818595886
1781545731167938,825200292,0.6276412010192871,0.14854229986667633,-0.10949794948101044,0.7563148736953735,3.718440294265747,0.19956667721271515,9.573041915893555,0.4656197130680084,0.11535318195819855,0.6062718033790588
1781545731170040,825216959,0.6276384592056274,0.14853724837303162,-0.10948870331048965,0.7563194632530212,3.7172722816467285,0.2088332325220108,9.57445240020752,0.500004768371582,0.2497430145740509,0.6415020227432251
1781545731197937,825233626,0.6276361346244812,0.14853698015213013,-0.10948777198791504,0.7563216090202332,3.7137696743011475,0.204330176115036,9.58698558807373,0.4734443724155426,0.1865180879831314,0.6291695833206177
1781545731199744,825250293,0.6276408433914185,0.14852723479270935,-0.10948093980550766,0.7563204765319824,3.70754337310791,0.2058824896812439,9.59005069732666,0.45522090792655945,0.2634201943874359,0.5841039419174194
1781545731228034,825266960,0.6276425123214722,0.14852643013000488,-0.10947475582361221,0.756320059299469,3.7174389362335205,0.20277810096740723,9.572959899902344,0.4952279329299927,0.21273267269134521,0.5999454855918884
1781545731230485,825283627,0.6276494860649109,0.14852109551429749,-0.10947372019290924,0.7563154697418213,3.708662748336792,0.2072698175907135,9.58272647857666,0.4432469308376312,0.21385963261127472,0.5691332817077637
1781545731257944,825300294,0.6276481747627258,0.14852450788021088,-0.10947172343730927,0.7563162446022034,3.7312145233154297,0.20442315936088562,9.609416007995605,0.4935119152069092,0.1715218424797058,0.6159405708312988
1781545731259429,825316961,0.6276553869247437,0.14852319657802582,-0.10948321223258972,0.7563088536262512,3.7212471961975098,0.21399658918380737,9.58731460571289,0.3932637870311737,0.13618911802768707,0.5646639466285706
1781545731288214,825333628,0.6276628971099854,0.1485261172056198,-0.10947105288505554,0.7563037276268005,3.708777904510498,0.2137429565191269,9.598312377929688,0.5311625003814697,0.21868762373924255,0.5343641638755798
1781545731318456,825350295,0.6276660561561584,0.1485232561826706,-0.10948099941015244,0.7563003897666931,3.7127716541290283,0.21397154033184052,9.586703300476074,0.3994491994380951,0.15178725123405457,0.597998857498169
1781545731319667,825366962,0.6276630163192749,0.14851802587509155,-0.1094784289598465,0.7563042044639587,3.7049720287323,0.21076354384422302,9.585062026977539,0.4672204256057739,0.22092872858047485,0.6520416736602783
1781545731348519,825383629,0.6276702880859375,0.14850905537605286,-0.10947880148887634,0.7562998533248901,3.7164053916931152,0.21809858083724976,9.598176002502441,0.415277898311615,0.2268965095281601,0.5607836842536926
1781545731350815,825400296,0.627670168876648,0.1485111266374588,-0.10947854071855545,0.756299614906311,3.71170973777771,0.21932163834571838,9.58260440826416,0.47998833656311035,0.17081747949123383,0.6144294738769531
1781545731377966,825416963,0.627667248249054,0.14851008355617523,-0.10948076099157333,0.7563018798828125,3.718679904937744,0.20610755681991577,9.576135635375977,0.46217477321624756,0.17705421149730682,0.6548334956169128
1781545731379534,825433630,0.6276657581329346,0.14851383864879608,-0.10948587954044342,0.756301760673523,3.711977958679199,0.2165573537349701,9.594602584838867,0.4623028039932251,0.13822533190250397,0.629912257194519
1781545731408019,825450297,0.6276637315750122,0.14850902557373047,-0.1094723716378212,0.7563063502311707,3.716061592102051,0.2146555483341217,9.594184875488281,0.5222108960151672,0.26722368597984314,0.631782054901123
1781545731409946,825466964,0.6276654601097107,0.14851339161396027,-0.10948169231414795,0.7563026547431946,3.7138054370880127,0.21339944005012512,9.577858924865723,0.43387269973754883,0.11541721969842911,0.5934526324272156
1781545731438102,825483631,0.6276610493659973,0.14850802719593048,-0.1094869002699852,0.756306529045105,3.7116596698760986,0.21043118834495544,9.585333824157715,0.4270341098308563,0.18697910010814667,0.6667689681053162
1781545731468153,825500298,0.6276573538780212,0.14850948750972748,-0.10949019342660904,0.7563088536262512,3.7191948890686035,0.2139895111322403,9.58143138885498,0.4625013470649719,0.15858103334903717,0.645901083946228
1781545731469686,825516965,0.6276581883430481,0.1485140025615692,-0.10947974026203156,0.7563089728355408,3.7100002765655518,0.20677630603313446,9.575798988342285,0.5414204597473145,0.20317915081977844,0.5960779786109924
1781545731498223,825533632,0.6276501417160034,0.14851467311382294,-0.10947895050048828,0.7563155889511108,3.7099857330322266,0.2235078364610672,9.590041160583496,0.49001574516296387,0.18152359127998352,0.6866828203201294
1781545731499734,825550299,0.6276395916938782,0.14852449297904968,-0.10947542637586594,0.7563228011131287,3.722611665725708,0.21417048573493958,9.59179973602295,0.5404536724090576,0.14419952034950256,0.679146409034729
1781545731528215,825566966,0.6276443004608154,0.14853015542030334,-0.10948360711336136,0.7563165426254272,3.7036781311035156,0.21923591196537018,9.603483200073242,0.4416205883026123,0.11330418288707733,0.5687108039855957
1781545731529752,825583633,0.627641499042511,0.14851868152618408,-0.10947950929403305,0.7563218474388123,3.72501802444458,0.21664293110370636,9.589668273925781,0.44874081015586853,0.2616529166698456,0.6613646745681763
1781545731558202,825600300,0.6276481747627258,0.14852550625801086,-0.10948274284601212,0.7563145756721497,3.716580390930176,0.21904262900352478,9.574251174926758,0.47235578298568726,0.12909440696239471,0.552702784538269
1781545731559908,825616967,0.627647876739502,0.1485327184200287,-0.1094885841012001,0.756312370300293,3.7274057865142822,0.22251877188682556,9.590182304382324,0.4677071273326874,0.11573739349842072,0.6077573895454407
1781545731588445,825633634,0.6276496052742004,0.14853127300739288,-0.10948120057582855,0.7563124299049377,3.7196669578552246,0.20155882835388184,9.60287857055664,0.49837830662727356,0.22154343128204346,0.5991002917289734
1781545731617889,825650301,0.6276475191116333,0.14853572845458984,-0.10948558151721954,0.7563126087188721,3.7062597274780273,0.20445534586906433,9.584653854370117,0.47016584873199463,0.13758501410484314,0.6343305110931396
1781545731619986,825666968,0.6276453137397766,0.1485414057970047,-0.10949932783842087,0.7563113570213318,3.7061307430267334,0.22123844921588898,9.582143783569336,0.42005467414855957,0.08890808373689651,0.6232530474662781
1781545731647949,825683635,0.6276406049728394,0.1485469490289688,-0.10949552804231644,0.7563146948814392,3.720503091812134,0.21120283007621765,9.585923194885254,0.5179848074913025,0.16817937791347504,0.6427955031394958
1781545731649962,825700302,0.6276337504386902,0.14855098724365234,-0.10949887335300446,0.7563191056251526,3.7113842964172363,0.2195827066898346,9.597710609436035,0.4763641953468323,0.14451324939727783,0.6624019742012024
1781545731678110,825716969,0.6276320815086365,0.14856284856796265,-0.10950513184070587,0.7563171982765198,3.729665994644165,0.21834532916545868,9.584310531616211,0.48833808302879333,0.08917701244354248,0.6157228946685791
1781545731679925,825733636,0.6276292204856873,0.14856714010238647,-0.10951363295316696,0.756317675113678,3.7205498218536377,0.21062418818473816,9.601290702819824,0.45053374767303467,0.12037327885627747,0.6489424705505371
1781545731707851,825750303,0.627629280090332,0.14855436980724335,-0.10951970517635345,0.7563192844390869,3.7147316932678223,0.21711131930351257,9.596899032592773,0.3843633234500885,0.22279846668243408,0.641463577747345
1781545731709781,825766970,0.627632200717926,0.1485559344291687,-0.10951974242925644,0.7563163638114929,3.718193531036377,0.2220073789358139,9.580948829650879,0.47145941853523254,0.17177799344062805,0.5905328989028931
1781545731738372,825783637,0.6276332139968872,0.14856229722499847,-0.10951264202594757,0.756315290927887,3.7088451385498047,0.22570517659187317,9.593090057373047,0.5305862426757812,0.1780402809381485,0.5915060639381409
1781545731767835,825800304,0.6276283264160156,0.14856615662574768,-0.10950931906700134,0.7563191056251526,3.7195627689361572,0.2138448804616928,9.594147682189941,0.5100705027580261,0.1752997189760208,0.6489425301551819
1781545731770340,825816971,0.6276406049728394,0.14855022728443146,-0.10951530933380127,0.756311297416687,3.7222273349761963,0.21715803444385529,9.587060928344727,0.35205936431884766,0.2392738312482834,0.540261447429657
1781545731797841,825833638,0.6276372075080872,0.14855101704597473,-0.10950666666030884,0.7563150525093079,3.7133586406707764,0.2142019420862198,9.576215744018555,0.5227488279342651,0.2152811586856842,0.6372632384300232
1781545731799740,825850305,0.6276350617408752,0.14854995906352997,-0.10950631648302078,0.7563170194625854,3.7190089225769043,0.2091580629348755,9.592757225036621,0.47065261006355286,0.18837501108646393,0.6380443572998047
1781545731827824,825866972,0.6276292204856873,0.14854367077350616,-0.10950729250907898,0.7563231587409973,3.7206830978393555,0.2191844880580902,9.621692657470703,0.44775477051734924,0.21125991642475128,0.6788709759712219
1781545731829811,825883639,0.6276188492774963,0.1485433131456375,-0.10951538383960724,0.756330668926239,3.7151379585266113,0.21558216214179993,9.583593368530273,0.4445403814315796,0.14788131415843964,0.717674195766449
1781545731857824,825900306,0.627623438835144,0.14854492247104645,-0.10951584577560425,0.7563264966011047,3.7148497104644775,0.20966945588588715,9.601219177246094,0.46531230211257935,0.1697929948568344,0.5736411809921265
1781545731859807,825916973,0.6276196241378784,0.1485481709241867,-0.10951096564531326,0.7563297152519226,3.712475299835205,0.21638749539852142,9.56887435913086,0.5182921290397644,0.18564723432064056,0.6508250832557678
1781545731888048,825933640,0.6276178359985352,0.1485525220632553,-0.10950816422700882,0.7563307285308838,3.70247220993042,0.2044372856616974,9.589356422424316,0.5055498480796814,0.170087531208992,0.6255965828895569
1781545731918130,825950307,0.6276174783706665,0.1485513597726822,-0.1095058023929596,0.7563315629959106,3.7093851566314697,0.21940389275550842,9.587079048156738,0.4791431128978729,0.19773642718791962,0.6248921751976013
1781545731919481,825966974,0.62762051820755,0.14854475855827332,-0.10950030386447906,0.7563310861587524,3.704542875289917,0.21668216586112976,9.59450626373291,0.46611911058425903,0.24070173501968384,0.5995356440544128
1781545731948181,825983641,0.6276253461837769,0.14852681756019592,-0.10949989408254623,0.756330668926239,3.7153468132019043,0.20437666773796082,9.583795547485352,0.39176544547080994,0.27937692403793335,0.6111894249916077
1781545731949518,826000308,0.6276255249977112,0.1485150009393692,-0.10950268805027008,0.7563323974609375,3.720782518386841,0.21733684837818146,9.589707374572754,0.4036625027656555,0.23223672807216644,0.6330882906913757
1781545731978171,826016975,0.6276286244392395,0.14851725101470947,-0.10949457436800003,0.7563306093215942,3.7046217918395996,0.20895421504974365,9.574190139770508,0.5160767436027527,0.20475433766841888,0.582029402256012
1781545731979981,826033642,0.6276307702064514,0.1485079973936081,-0.10948314517736435,0.756332278251648,3.715919017791748,0.22620226442813873,9.579797744750977,0.4875185191631317,0.2815667986869812,0.606809675693512
1781545732007829,826050309,0.6276293396949768,0.14851224422454834,-0.1094764992594719,0.7563335299491882,3.709310531616211,0.2169707864522934,9.597736358642578,0.527858555316925,0.18783710896968842,0.627632737159729
1781545732009770,826066976,0.6276288032531738,0.1485116332769394,-0.10946991294622421,0.7563350796699524,3.7138125896453857,0.21163994073867798,9.58488655090332,0.5049607753753662,0.21388524770736694,0.6244311332702637
1781545732038051,826083643,0.6276284456253052,0.14850714802742004,-0.10947262495756149,0.7563359141349792,3.7212259769439697,0.2178303599357605,9.593165397644043,0.43777862191200256,0.19319018721580505,0.6316155791282654
1781545732068138,826100310,0.627633810043335,0.14850306510925293,-0.10947896540164948,0.7563313245773315,3.728257417678833,0.21381443738937378,9.599102020263672,0.4100784659385681,0.1741599291563034,0.5813506245613098
1781545732069542,826116977,0.6276336312294006,0.14850108325481415,-0.10947750508785248,0.7563320398330688,3.70627760887146,0.2231624871492386,9.582064628601074,0.47159382700920105,0.19825510680675507,0.6281386613845825
