host_t_us,sensor_t_us,qw,qx,qy,qz,ax,ay,az,gx,gy,gz
1781545723004161,731397648,0.1706288456916809,-0.0058327773585915565,0.0034707633312791586,-0.9853121042251587,0.10474710911512375,-0.07811152189970016,9.74201774597168,0.7510859966278076,0.08687186986207962,0.11777359247207642
1781545723005649,731414315,0.17062485218048096,-0.005833910312503576,0.003471985924988985,-0.985312819480896,0.0965111032128334,-0.09105023741722107,9.738380432128906,0.6920102834701538,0.024517755955457687,0.06442233920097351
1781545723037745,731430982,0.1706351339817047,-0.0058331056497991085,0.003477239515632391,-0.9853109121322632,0.10176455229520798,-0.07940610498189926,9.750343322753906,0.6674348711967468,0.041998423635959625,0.15683294832706451
1781545723038664,731447649,0.17063552141189575,-0.005836846772581339,0.0034710275940597057,-0.9853108525276184,0.09819559007883072,-0.0867265909910202,9.750528335571289,0.7394450306892395,-0.001946565113030374,0.08764025568962097
1781545723064479,731464316,0.17063289880752563,-0.005843332502990961,0.003471802920103073,-0.9853112697601318,0.10902425646781921,-0.07421345263719559,9.733166694641113,0.6888343095779419,-0.012242870405316353,0.06384605169296265
1781545723094691,731480983,0.17064432799816132,-0.00583807285875082,0.003458624240010977,-0.985309362411499,0.09085731208324432,-0.09174042195081711,9.734363555908203,0.7976242899894714,0.05047622695565224,0.1733403503894806
1781545723096037,731497650,0.17064674198627472,-0.005841352511197329,0.0034567087423056364,-0.9853089451789856,0.10500460118055344,-0.07840119302272797,9.763635635375977,0.7109764814376831,0.006115031894296408,0.10757975280284882
1781545723124344,731514317,0.1706472933292389,-0.005843766964972019,0.003464137902483344,-0.985308825969696,0.08178070932626724,-0.08472750335931778,9.73770809173584,0.6485199332237244,0.023057829588651657,0.08812688291072845
1781545723128392,731530984,0.17064858973026276,-0.0058440654538571835,0.0034646745771169662,-0.9853085875511169,0.10402829200029373,-0.08556076139211655,9.726668357849121,0.6977474689483643,0.029307331889867783,0.0941970944404602
1781545723155605,731547651,0.17064973711967468,-0.005839357152581215,0.0034549206029623747,-0.9853084683418274,0.09471584856510162,-0.09218389540910721,9.739471435546875,0.7732793688774109,0.051167767494916916,0.08524546772241592
1781545723184178,731564318,0.17065003514289856,-0.005835742689669132,0.0034571108408272266,-0.9853084087371826,0.10003724694252014,-0.08367609977722168,9.749849319458008,0.69110107421875,0.057775843888521194,0.08623155206441879
1781545723185369,731580985,0.1706644743680954,-0.0058383094146847725,0.003448426490649581,-0.985305905342102,0.10143911838531494,-0.0780864879488945,9.741874694824219,0.7580527067184448,0.0026573175564408302,0.1861082911491394
1781545723187046,731597652,0.17065678536891937,-0.005840769968926907,0.0034484555944800377,-0.9853072166442871,0.10624908655881882,-0.08272840827703476,9.746935844421387,0.6984006762504578,0.014247064478695393,0.034378647804260254
1781545723214984,731614319,0.17066837847232819,-0.005859065800905228,0.0034449463710188866,-0.98530513048172,0.10093113034963608,-0.0886613130569458,9.751652717590332,0.7045348882675171,-0.0978149026632309,0.17531253397464752
1781545723244447,731630986,0.1706658899784088,-0.005862126126885414,0.00345030939206481,-0.9853055477142334,0.11228575557470322,-0.09252005815505981,9.732684135437012,0.661723256111145,0.01636011153459549,0.06557491421699524
1781545723246124,731647653,0.17066842317581177,-0.005855096038430929,0.00344915222376585,-0.9853051900863647,0.10379573702812195,-0.08315756171941757,9.745515823364258,0.7180455923080444,0.0768573060631752,0.10585087537765503
1781545723274039,731664320,0.17066536843776703,-0.005850339308381081,0.003449282143265009,-0.9853057265281677,0.09912531077861786,-0.07755720615386963,9.758068084716797,0.7062766551971436,0.06315451115369797,0.0718628317117691
1781545723275913,731680987,0.1706930696964264,-0.005744066555052996,0.0034474043641239405,-0.9853015542030334,0.09192641079425812,-0.06730780005455017,9.73501205444336,0.6439225077629089,0.06782883405685425,0.14501269161701202
1781545723304071,731697654,0.1706925481557846,-0.005761478561908007,0.0034531543496996164,-0.9853014349937439,0.10411054641008377,-0.09455134719610214,9.738656044006348,0.6419503092765808,-0.08115383237600327,0.0799180269241333
1781545723305712,731714321,0.17069537937641144,-0.005762245040386915,0.003457070328295231,-0.9853009581565857,0.09657547622919083,-0.10646726936101913,9.740626335144043,0.6741326451301575,0.02929452434182167,0.10873231291770935
1781545723334042,731730988,0.17069382965564728,-0.005762257147580385,0.003458523191511631,-0.9853012561798096,0.0957779809832573,-0.09766621887683868,9.735044479370117,0.6915748715400696,0.031676504760980606,0.07555105537176132
1781545723335809,731747655,0.17070040106773376,-0.005768728908151388,0.003460137639194727,-0.9853000640869141,0.10899564623832703,-0.08930147439241409,9.747611045837402,0.6831610798835754,-0.012204451486468315,0.13624036312103271
1781545723364284,731764322,0.1706976741552353,-0.005775837693363428,0.003460503648966551,-0.9853004813194275,0.0865442156791687,-0.07983167469501495,9.746652603149414,0.6905375719070435,-0.017723986878991127,0.07350204139947891
1781545723394060,731780989,0.17069973051548004,-0.00576811283826828,0.0034674559719860554,-0.9853001832962036,0.0950268879532814,-0.0875348448753357,9.723604202270508,0.6635033488273621,0.0904192328453064,0.10148391872644424
1781545723396146,731797656,0.17069607973098755,-0.005780348554253578,0.0034648331347852945,-0.9853007793426514,0.10649945586919785,-0.08973419666290283,9.7501859664917,0.7047141790390015,-0.05582287162542343,0.05613663047552109
1781545723424148,731814323,0.17070314288139343,-0.005783125292509794,0.0034649905283004045,-0.9852995276451111,0.10353120416402817,-0.09416511654853821,9.751251220703125,0.6974913477897644,0.011135119944810867,0.13515180349349976
1781545723425754,731830990,0.17069539427757263,-0.005784948822110891,0.0034651688765734434,-0.9853008985519409,0.08644407987594604,-0.08386921137571335,9.731203079223633,0.6978628635406494,0.018037743866443634,0.03481405973434448
1781545723454042,731847657,0.17070500552654266,-0.0057944320142269135,0.0034675446804612875,-0.9852991700172424,0.08610076457262039,-0.08275343477725983,9.730899810791016,0.6746833324432373,-0.031798165291547775,0.1526452898979187
1781545723456162,731864324,0.170711949467659,-0.005796706769615412,0.0034685309510678053,-0.9852978587150574,0.09205514937639236,-0.08301807940006256,9.737350463867188,0.6922792196273804,0.0155789228156209,0.1307079941034317
1781545723484049,731880991,0.1707196980714798,-0.005791733972728252,0.0034647586289793253,-0.9852964878082275,0.11103394627571106,-0.08416604995727539,9.724634170532227,0.7330545783042908,0.059018056839704514,0.1371367871761322
1781545723486073,731897658,0.17071886360645294,-0.005787254776805639,0.003460816340520978,-0.9852967262268066,0.0911969393491745,-0.09828846156597137,9.755756378173828,0.7334004640579224,0.05575244873762131,0.07731834053993225
1781545723514270,731914325,0.17072206735610962,-0.005794215016067028,0.0034581150393933058,-0.9852961301803589,0.09588169306516647,-0.09351424127817154,9.743444442749023,0.7118345499038696,-0.020515771582722664,0.113675557076931
1781545723544052,731930992,0.17071832716464996,-0.005790725350379944,0.0034540011547505856,-0.9852967858314514,0.11244305223226547,-0.09087859094142914,9.752786636352539,0.733426034450531,0.048862624913454056,0.06300082802772522
1781545723545764,731947659,0.1707276552915573,-0.005794967990368605,0.003461312735453248,-0.985295295715332,0.10994691401720047,-0.0950627401471138,9.73496150970459,0.6473162174224854,0.00952152069658041,0.15272210538387299
1781545723574067,731964326,0.1707277148962021,-0.0057896897196769714,0.0034565564710646868,-0.9852951765060425,0.10043429583311081,-0.08915125578641891,9.739212989807129,0.7399829030036926,0.06009379401803017,0.09044484049081802
1781545723575667,731980993,0.17072558403015137,-0.005794326774775982,0.003457593033090234,-0.9852955341339111,0.0986747145652771,-0.0920444205403328,9.745808601379395,0.6889495253562927,-0.0001792888797353953,0.07520528882741928
1781545723604047,731997660,0.17072747647762299,-0.005794483702629805,0.0034567599650472403,-0.9852951765060425,0.08925140649080276,-0.09160812944173813,9.75040054321289,0.7071473598480225,0.027873018756508827,0.09826952964067459
1781545723605760,732014327,0.17071881890296936,-0.005790820345282555,0.0034610966686159372,-0.9852966666221619,0.09550616145133972,-0.09878915548324585,9.758715629577637,0.6761560440063477,0.06010659784078598,0.031317926943302155
1781545723635257,732030994,0.17074263095855713,-0.005800464656203985,0.0034612957388162613,-0.9852926135063171,0.10437183827161789,-0.0731334462761879,9.749133110046387,0.6896795630455017,-0.03583216667175293,0.24947407841682434
1781545723635840,732047661,0.17073915898799896,-0.0057953037321567535,0.00346607668325305,-0.9852932691574097,0.09149011224508286,-0.08836450427770615,9.745357513427734,0.6750162243843079,0.07060781866312027,0.06794408708810806
1781545723664753,732064328,0.170736625790596,-0.005787503905594349,0.00346525851637125,-0.9852936863899231,0.08949100971221924,-0.08065778017044067,9.765495300292969,0.7160478234291077,0.08199266344308853,0.05956874042749405
1781545723694063,732080995,0.17074036598205566,-0.005779384169727564,0.0034620966762304306,-0.9852930903434753,0.10173583030700684,-0.09272034466266632,9.74888801574707,0.7326064109802246,0.08116023242473602,0.11126796156167984
1781545723697005,732097662,0.17073817551136017,-0.005778059829026461,0.0034644335974007845,-0.985293447971344,0.09930412471294403,-0.06738289445638657,9.73411750793457,0.6872463226318359,0.041742295026779175,0.07108163088560104
1781545723724138,732114329,0.17073167860507965,-0.00577132822945714,0.0034716224763542414,-0.9852945804595947,0.10212928801774979,-0.07752145826816559,9.735945701599121,0.6604938507080078,0.08423376083374023,0.0386047400534153
1781545723726110,732130996,0.17075195908546448,-0.005771429277956486,0.003474951023235917,-0.985291063785553,0.09873908013105392,-0.08597202599048615,9.75391960144043,0.6795753836631775,0.032572951167821884,0.2279338240623474
1781545723754124,732147663,0.17075543105602264,-0.005771301686763763,0.0034799440763890743,-0.9852904677391052,0.09214465320110321,-0.0853855088353157,9.728888511657715,0.6680240035057068,0.03661975637078285,0.10741325467824936
1781545723755666,732164330,0.17076870799064636,-0.005785984452813864,0.003483638633042574,-0.9852880835533142,0.09511622041463852,-0.09234481304883957,9.761519432067871,0.6598023772239685,-0.06565815210342407,0.1851734071969986
1781545723784121,732180997,0.17075680196285248,-0.005786374676972628,0.003494397271424532,-0.9852900505065918,0.09636448323726654,-0.08602923899888992,9.755210876464844,0.6278632879257202,0.04026956483721733,0.007831081748008728
1781545723787071,732197664,0.1707577109336853,-0.005785187240689993,0.0034993719309568405,-0.9852899312973022,0.09838869422674179,-0.08915840834379196,9.733372688293457,0.669253408908844,0.0438041165471077,0.09292928129434586
1781545723814360,732214331,0.1707499474287033,-0.005786094814538956,0.0035017826594412327,-0.9852913022041321,0.11508950591087341,-0.08279992640018463,9.7374906539917,0.6839551329612732,0.02683570794761181,0.03706797957420349
1781545723844065,732230998,0.1707545667886734,-0.005785084329545498,0.0034975260496139526,-0.9852904081344604,0.08271420747041702,-0.08503146469593048,9.748185157775879,0.7316331267356873,0.03168930858373642,0.11610876023769379
1781545723847023,732247665,0.17074885964393616,-0.005788767710328102,0.003493485040962696,-0.9852913618087769,0.10444670915603638,-0.08524605631828308,9.752195358276367,0.724269449710846,0.0004546254058368504,0.0455457828938961
1781545723874047,732264332,0.17074336111545563,-0.005777597427368164,0.0034882579930126667,-0.985292375087738,0.09597110003232956,-0.06540883332490921,9.75332260131836,0.7499333024024963,0.09969102591276169,0.045558586716651917
1781545723877180,732280999,0.17073622345924377,-0.005786648951470852,0.003486906411126256,-0.9852936863899231,0.10127457976341248,-0.0916796550154686,9.762639045715332,0.6999117732048035,-0.032797060906887054,0.036939915269613266
1781545723904344,732297666,0.17073604464530945,-0.00579236401244998,0.0034903089981526136,-0.9852936863899231,0.10275516659021378,-0.09012042731046677,9.754152297973633,0.6718403100967407,-0.004789575003087521,0.08691029250621796
1781545723906257,732314333,0.1707242727279663,-0.005790289957076311,0.0035054509062319994,-0.9852956533432007,0.10000148415565491,-0.08046823740005493,9.731672286987305,0.6009187698364258,0.06211719661951065,0.004232498351484537
1781545723934332,732331000,0.17072632908821106,-0.005790310446172953,0.003492543939501047,-0.9852953553199768,0.10292313992977142,-0.08274628967046738,9.755987167358398,0.7890185117721558,0.01458002906292677,0.0989994928240776
1781545723935981,732347667,0.1707201451063156,-0.005791237112134695,0.003497098805382848,-0.9852964282035828,0.10827679187059402,-0.07661309093236923,9.735299110412598,0.669394314289093,0.029166461899876595,0.04429076239466667
1781545723964563,732364334,0.17072594165802002,-0.005795437376946211,0.0034952345304191113,-0.9852954745292664,0.10820530354976654,-0.07175302505493164,9.735766410827637,0.7094141840934753,-0.0009092509280890226,0.12681488692760468
1781545723994061,732381001,0.1707289218902588,-0.005797054152935743,0.0034945118241012096,-0.9852948188781738,0.1023617833852768,-0.08234217017889023,9.752914428710938,0.7047398090362549,0.018024936318397522,0.10781025141477585
1781545723996311,732397668,0.17072781920433044,-0.005793329328298569,0.0034921413753181696,-0.9852950572967529,0.09886067360639572,-0.07958134263753891,9.740619659423828,0.7219515442848206,0.05243559554219246,0.0810321718454361
1781545724027562,732414335,0.1707218438386917,-0.00578700378537178,0.0034931169357150793,-0.9852961301803589,0.10176097601652145,-0.0835723876953125,9.744421005249023,0.7020889520645142,0.074103944003582,0.04909314587712288
1781545724028469,732431002,0.17072615027427673,-0.0057856375351548195,0.003498468780890107,-0.9852954149246216,0.0882965549826622,-0.08184865862131119,9.731239318847656,0.6670635342597961,0.04532807692885399,0.12217897176742554
1781545724056839,732447669,0.17073343694210052,-0.0057848719879984856,0.0035009232815355062,-0.9852941036224365,0.08416961133480072,-0.08246733993291855,9.757946014404297,0.6861193776130676,0.03772110119462013,0.14392416179180145
1781545724058201,732464336,0.1707313060760498,-0.005789163988083601,0.003500242019072175,-0.9852944612503052,0.10354200005531311,-0.08654778450727463,9.739599227905273,0.70106440782547,0.00010885396477533504,0.06980101019144058
1781545724084069,732481003,0.17072732746601105,-0.005792544223368168,0.003515110816806555,-0.9852951169013977,0.10718608647584915,-0.08269263803958893,9.74351978302002,0.5967311263084412,0.02453056164085865,0.06661222875118256
1781545724087145,732497670,0.17072699964046478,-0.005799716338515282,0.0035072462633252144,-0.9852951765060425,0.0927453562617302,-0.09309583157300949,9.716909408569336,0.7462323904037476,-0.027789777144789696,0.07653714716434479
1781545724114544,732514337,0.17072562873363495,-0.005805928725749254,0.0035121855325996876,-0.9852952361106873,0.09640374779701233,-0.08684462308883667,9.742705345153809,0.6607885360717773,-0.00633914303034544,0.0822615996003151
1781545724144067,732531004,0.17072775959968567,-0.005798742175102234,0.003500510472804308,-0.9852949380874634,0.09933988749980927,-0.0853390321135521,9.737390518188477,0.7889415621757507,0.06496021151542664,0.09663031250238419
1781545724145781,732547671,0.17072106897830963,-0.005803985055536032,0.0034932391718029976,-0.9852961897850037,0.10000506043434143,-0.09056387096643448,9.728707313537598,0.7443882822990417,-0.013920501805841923,0.045046333223581314
1781545724174063,732564338,0.1707221418619156,-0.005805220454931259,0.0035118567757308483,-0.9852959513664246,0.09616421163082123,-0.07649507373571396,9.749463081359863,0.5738845467567444,0.04344554245471954,0.09328785538673401
1781545724175755,732581005,0.17071780562400818,-0.005808258894830942,0.0034998024348169565,-0.9852967858314514,0.0987819954752922,-0.08819642663002014,9.750636100769043,0.7794072031974792,-0.0047127362340688705,0.05948549136519432
1781545724204056,732597672,0.17072126269340515,-0.0058110496029257774,0.0035035801120102406,-0.9852960705757141,0.1002982035279274,-0.09518076479434967,9.752243041992188,0.6728264093399048,0.015309992246329784,0.11486654728651047
1781545724205744,732614339,0.17072197794914246,-0.005800722632557154,0.0034961008932441473,-0.9852960705757141,0.09239836037158966,-0.0915902629494667,9.745609283447266,0.7644429802894592,0.09100832045078278,0.10170163214206696
1781545724234069,732631006,0.17073743045330048,-0.005794793367385864,0.0034872284159064293,-0.985293447971344,0.11571891605854034,-0.08632964640855789,9.748433113098145,0.7690660953521729,0.059210155159235,0.19733944535255432
1781545724235827,732647673,0.1707381308078766,-0.0057941218838095665,0.003492349060252309,-0.9852933287620544,0.08344372361898422,-0.0973479151725769,9.735082626342773,0.6676526665687561,0.04046166315674782,0.0902271419763565
1781545724264308,732664340,0.17074643075466156,-0.005794350989162922,0.003496300894767046,-0.9852918386459351,0.09171898663043976,-0.09624646604061127,9.7635498046875,0.6749138236045837,0.03271381929516792,0.14624209702014923
1781545724294065,732681007,0.17074331641197205,-0.005797801073640585,0.00349542242474854,-0.985292375087738,0.08876504004001617,-0.08208826184272766,9.752724647521973,0.7034208178520203,0.00555155286565423,0.07077428698539734
1781545724295848,732697674,0.17074139416217804,-0.005805660504847765,0.003479929408058524,-0.9852927327156067,0.09229476004838943,-0.06747230142354965,9.7335205078125,0.7971888184547424,-0.04147976636886597,0.07292575389146805
1781545724324086,732714341,0.17073369026184082,-0.005810083821415901,0.0034728851169347763,-0.9852940440177917,0.0904315859079361,-0.09150440245866776,9.723301887512207,0.7438119649887085,-0.008093612268567085,0.03314923495054245
1781545724325934,732731008,0.17074054479599,-0.005810873117297888,0.0034791601356118917,-0.9852928519248962,0.09253091365098953,-0.10200414061546326,9.735254287719727,0.6582911610603333,0.03165089339017868,0.1421312689781189
1781545724354057,732747675,0.17073987424373627,-0.005807540379464626,0.0034855203703045845,-0.9852929711341858,0.09686864912509918,-0.07880889624357224,9.73774528503418,0.6623123288154602,0.0599273145198822,0.08483566343784332
1781545724355839,732764342,0.17074960470199585,-0.005812651943415403,0.0034869241062551737,-0.9852913022041321,0.09759469330310822,-0.10339530557394028,9.748808860778809,0.6862474083900452,-0.003329650731757283,0.14583230018615723
1781545724384171,732781009,0.17074903845787048,-0.005817064084112644,0.00349253648892045,-0.9852913022041321,0.11157409101724625,-0.09037075936794281,9.739710807800293,0.6583424210548401,0.0066400920040905476,0.07881667464971542
1781545724385954,732797676,0.17074130475521088,-0.005819963291287422,0.0034933974966406822,-0.9852925539016724,0.11297953873872757,-0.08539267629384995,9.735694885253906,0.6920486688613892,0.011442473158240318,0.040397629141807556
1781545724414612,732814343,0.17074057459831238,-0.0058207036927342415,0.0034926424268633127,-0.9852926731109619,0.10222946107387543,-0.09148295968770981,9.743370056152344,0.7058667540550232,0.023992694914340973,0.08541194349527359
1781545724444136,732831010,0.17074543237686157,-0.0058258697390556335,0.0034994829911738634,-0.9852918386459351,0.11161690205335617,-0.08154825866222382,9.727449417114258,0.6492371559143066,0.002798187779262662,0.11494340002536774
1781545724445945,732847677,0.1707516461610794,-0.005834929645061493,0.0035071754828095436,-0.98529052734375,0.09581039100885391,-0.08473822474479675,9.751558303833008,0.6390688419342041,-0.022667238488793373,0.12758325040340424
1781545724474126,732864344,0.17075714468955994,-0.005838272161781788,0.003516690107062459,-0.9852896332740784,0.10613468289375305,-0.09084997326135635,9.75733470916748,0.6333445310592651,0.018229840323328972,0.12630262970924377
1781545724476078,732881011,0.1707608848810196,-0.0058373259380459785,0.003517970209941268,-0.9852889776229858,0.09655749052762985,-0.08078653365373611,9.725739479064941,0.6941745281219482,0.03768268600106239,0.11348345875740051
1781545724504123,732897678,0.17077498137950897,-0.005841772072017193,0.003521566279232502,-0.98528653383255,0.09377530962228775,-0.07111645489931107,9.751248359680176,0.6724549531936646,0.003528149100020528,0.1883493810892105
1781545724506124,732914345,0.17077310383319855,-0.00584680400788784,0.00352533720433712,-0.9852868318557739,0.09105023741722107,-0.09445836395025253,9.746963500976562,0.6700089573860168,0.00031375556136481464,0.06804653257131577
1781545724534075,732931012,0.17076829075813293,-0.005856392905116081,0.003536263480782509,-0.9852875471115112,0.10353835672140121,-0.08260323852300644,9.740987777709961,0.616183876991272,-0.022129369899630547,0.05374184250831604
1781545724535815,732947679,0.17076857388019562,-0.005868599284440279,0.0035303491167724133,-0.9852874875068665,0.10394603759050369,-0.08956611156463623,9.72500228881836,0.7274071574211121,-0.05979285016655922,0.09085465222597122
1781545724564621,732964346,0.17077623307704926,-0.005873297341167927,0.00354158878326416,-0.9852859973907471,0.11178150773048401,-0.0824744924902916,9.747964859008789,0.6201794743537903,0.01099424995481968,0.14032557606697083
1781545724594070,732981013,0.17078207433223724,-0.005876733921468258,0.0035418260376900434,-0.9852849841117859,0.10174309462308884,-0.0871843546628952,9.746244430541992,0.6961339712142944,0.006665704771876335,0.12909440696239471
1781545724595878,732997680,0.17078667879104614,-0.005877018440514803,0.0035352460108697414,-0.985284149646759,0.10328801721334457,-0.09005963057279587,9.735698699951172,0.7459250688552856,0.020061148330569267,0.11978420615196228
1781545724624081,733014347,0.1707877665758133,-0.005883953999727964,0.003522726008668542,-0.9852839708328247,0.10069169104099274,-0.07425994426012039,9.738251686096191,0.7783570885658264,-0.03191342204809189,0.10172083228826523
1781545724625827,733031014,0.17078760266304016,-0.005890862550586462,0.003526213811710477,-0.9852839112281799,0.08966267108917236,-0.06932835280895233,9.735848426818848,0.6698554158210754,-0.012870382517576218,0.09346715360879898
1781545724654057,733047681,0.17077933251857758,-0.005902201868593693,0.003531779395416379,-0.9852854013442993,0.09429385513067245,-0.08312536031007767,9.755636215209961,0.6502360105514526,-0.04014790803194046,0.027258314192295074
1781545724655744,733064348,0.17077982425689697,-0.0059016053564846516,0.003529320703819394,-0.9852852821350098,0.08872203528881073,-0.08189158141613007,9.740777015686035,0.7189292311668396,0.031010573729872704,0.08885685354471207
1781545724684055,733081015,0.17078328132629395,-0.00590514438226819,0.0035352222621440887,-0.985284686088562,0.09642518311738968,-0.09175475686788559,9.743416786193848,0.6574971675872803,0.012748721987009048,0.10809198766946793
1781545724685762,733097682,0.17078490555286407,-0.005903142970055342,0.003541978308930993,-0.9852842688560486,0.10136759281158447,-0.0971512496471405,9.751058578491211,0.6583296656608582,0.051218993961811066,0.10579966753721237
1781545724714303,733114349,0.1707911342382431,-0.005898470990359783,0.0035380315966904163,-0.9852831959724426,0.10917458683252335,-0.09803097695112228,9.74460220336914,0.7340663075447083,0.05659766122698784,0.13440904021263123
1781545724744074,733131016,0.1707904040813446,-0.005891456268727779,0.0035394399892538786,-0.9852834939956665,0.09565281867980957,-0.08835377544164658,9.749924659729004,0.7003728747367859,0.07895755022764206,0.08935630321502686
1781545724745750,733147683,0.1707998365163803,-0.005896333139389753,0.003534876275807619,-0.9852817058563232,0.10424628853797913,-0.08253887295722961,9.758733749389648,0.7272277474403381,-0.008900412358343601,0.15676891803741455
1781545724774067,733164350,0.17080792784690857,-0.005902196280658245,0.003536705393344164,-0.9852803349494934,0.10471492260694504,-0.0793202742934227,9.734088897705078,0.6826233267784119,-0.008003968745470047,0.14411625266075134
1781545724775749,733181017,0.17079229652881622,-0.005911569111049175,0.0035354283172637224,-0.9852830171585083,0.08080440014600754,-0.0866515040397644,9.756755828857422,0.6987592577934265,-0.03474362567067146,-0.01568777672946453
1781545724804072,733197684,0.17079022526741028,-0.005911828484386206,0.003538292134180665,-0.985283374786377,0.10131759196519852,-0.08174851536750793,9.736151695251465,0.6818804740905762,0.03149721398949623,0.06782882660627365
1781545724805823,733214351,0.17077496647834778,-0.005902411416172981,0.0035324343480169773,-0.9852860569953918,0.08890093863010406,-0.08563228696584702,9.744682312011719,0.7517775297164917,0.08721764385700226,-0.023077040910720825
1781545724834862,733231018,0.17076461017131805,-0.0058972095139324665,0.003530725371092558,-0.9852878451347351,0.09261664003133774,-0.07977087050676346,9.753789901733398,0.7190316319465637,0.06326976418495178,0.020496562123298645
1781545724836670,733247685,0.17076337337493896,-0.005902919918298721,0.0035300441086292267,-0.9852880239486694,0.09054598957300186,-0.08391570299863815,9.730971336364746,0.6994379758834839,-0.009668794460594654,0.07780497521162033
1781545724864304,733264352,0.17075876891613007,-0.005902642384171486,0.003530163085088134,-0.9852889180183411,0.08761707693338394,-0.07289383560419083,9.74352741241455,0.7009619474411011,0.031907014548778534,0.05626469850540161
1781545724894083,733281019,0.17076146602630615,-0.005903148092329502,0.003527026856318116,-0.9852885007858276,0.09359649568796158,-0.10005512833595276,9.735573768615723,0.7224382162094116,0.022545576095581055,0.1051081046462059
1781545724895915,733297686,0.1707667112350464,-0.005913393571972847,0.003532024333253503,-0.9852875471115112,0.09211952239274979,-0.081988126039505,9.743999481201172,0.6559988856315613,-0.03402647003531456,0.12854373455047607
1781545724924090,733314353,0.17078234255313873,-0.005911925341933966,0.0035333537962287664,-0.9852847456932068,0.10587003827095032,-0.09055671840906143,9.750758171081543,0.6948533654212952,0.04076901450753212,0.19329266250133514
1781545724925998,733331020,0.1707848161458969,-0.005907484330236912,0.003535686992108822,-0.9852842688560486,0.09760899841785431,-0.094773069024086,9.75687313079834,0.6912034749984741,0.06242454797029495,0.10773341357707977
1781545724954248,733347687,0.17079570889472961,-0.005915077868849039,0.0035391924902796745,-0.9852824211120605,0.0954740047454834,-0.08278204500675201,9.740801811218262,0.6692662835121155,-0.017928889021277428,0.16198112070560455
1781545724956113,733364354,0.17079010605812073,-0.005914346780627966,0.003541315672919154,-0.9852834343910217,0.09650395065546036,-0.08711641281843185,9.751870155334473,0.6879634857177734,0.03732410445809364,0.04266435280442238
1781545724984041,733381021,0.17079845070838928,-0.005910140927881002,0.0035410032141953707,-0.9852818846702576,0.09579586237668991,-0.08708065003156662,9.757306098937988,0.7091323733329773,0.057481300085783005,0.14932842552661896
1781545724985909,733397688,0.17080633342266083,-0.00590975908562541,0.003538610879331827,-0.9852805137634277,0.08657282590866089,-0.07887325435876846,9.748855590820312,0.7185194492340088,0.02919207140803337,0.14246423542499542
1781545725014701,733414355,0.1708061397075653,-0.005904764402657747,0.0035491278395056725,-0.9852805733680725,0.09783788025379181,-0.09153660386800766,9.766786575317383,0.6362515091896057,0.07588403671979904,0.08323488384485245
1781545725044079,733431022,0.17079690098762512,-0.005909337196499109,0.00354411406442523,-0.9852821230888367,0.09323529899120331,-0.07866940647363663,9.734664916992188,0.7299043536186218,-0.006928234826773405,0.01675710640847683
1781545725046662,733447689,0.17078858613967896,-0.005911891348659992,0.003546379506587982,-0.9852836728096008,0.0990251824259758,-0.09354642778635025,9.74215030670166,0.6830074787139893,0.015258765779435635,0.029230495914816856
1781545725074522,733464356,0.17079514265060425,-0.00591123104095459,0.0035500312224030495,-0.9852824211120605,0.10498671978712082,-0.08038599044084549,9.736589431762695,0.6779361367225647,0.038143716752529144,0.13800762593746185
1781545725075714,733481023,0.1707954853773117,-0.005910253617912531,0.0035638378467410803,-0.9852823615074158,0.09104666113853455,-0.08739893138408661,9.722284317016602,0.6093836426734924,0.05242278799414635,0.09351835399866104
1781545725104059,733497690,0.17079633474349976,-0.005923990625888109,0.003556956071406603,-0.9852821826934814,0.07751071453094482,-0.08705919235944748,9.736632347106934,0.7322478890419006,-0.07154908031225204,0.09029117226600647
1781545725105669,733514357,0.17078979313373566,-0.005925881210714579,0.0035657791886478662,-0.9852831959724426,0.08756343275308609,-0.07879815250635147,9.753275871276855,0.6393377780914307,0.02738637663424015,0.0381949357688427
1781545725134085,733531024,0.17079629004001617,-0.005928614176809788,0.0035630138590931892,-0.9852821826934814,0.09999790787696838,-0.09360722452402115,9.72813892364502,0.7174181342124939,0.007587762549519539,0.1334613710641861
1781545725135628,733547691,0.17080818116664886,-0.005924028344452381,0.0035674425307661295,-0.9852801561355591,0.10454684495925903,-0.08744899928569794,9.731489181518555,0.6774879097938538,0.06544684618711472,0.17042049765586853
1781545725164597,733564358,0.1708151251077652,-0.005928081460297108,0.0035665270406752825,-0.985278844833374,0.09261675179004669,-0.10185394436120987,9.757229804992676,0.7034208178520203,0.0007107524434104562,0.14170867204666138
1781545725194052,733581025,0.17081494629383087,-0.005929259583353996,0.003556884592399001,-0.9852789640426636,0.09377888590097427,-0.09103593230247498,9.762331008911133,0.7656468152999878,0.010213063098490238,0.07880386710166931
1781545725195934,733597692,0.17081883549690247,-0.005929391365498304,0.003553516697138548,-0.9852782487869263,0.09230180084705353,-0.08143381774425507,9.740988731384277,0.7244871854782104,0.02458178997039795,0.11033309996128082
1781545725224547,733614359,0.17081277072429657,-0.005922907963395119,0.0035538990050554276,-0.985279381275177,0.096818707883358,-0.08836448937654495,9.74217414855957,0.7065839171409607,0.07397586852312088,0.04738989472389221
1781545725225724,733631026,0.17081668972969055,-0.0059263333678245544,0.0035609942860901356,-0.9852786660194397,0.10241900384426117,-0.08492419123649597,9.758875846862793,0.6500054597854614,0.014375126920640469,0.1220380961894989
1781545725254070,733647693,0.17082573473453522,-0.0059285350143909454,0.0035610070917755365,-0.9852770566940308,0.10036983340978622,-0.08808913826942444,9.743584632873535,0.6995020508766174,0.014221453107893467,0.15332402288913727
1781545725256800,733664360,0.1708233803510666,-0.005930951330810785,0.0035572319757193327,-0.9852774739265442,0.09453710913658142,-0.08333276957273483,9.725555419921875,0.7245128154754639,0.008701915852725506,0.06918630748987198
1781545725284512,733681027,0.17080524563789368,-0.0057630836963653564,0.0034904316999018192,-0.9852818846702576,0.10419995337724686,-0.08664435148239136,9.766436576843262,0.6819573640823364,0.028410885483026505,0.05258927866816521
1781545725285822,733697694,0.1708138883113861,-0.005766475573182106,0.003496443619951606,-0.9852803945541382,0.08437703549861908,-0.07125235348939896,9.73265552520752,0.656511127948761,0.012121210806071758,0.14852164685726166
1781545725314615,733714361,0.17081764340400696,-0.005770186893641949,0.003498583799228072,-0.9852796196937561,0.0994291827082634,-0.08762423694133759,9.760499954223633,0.6823927760124207,0.005513133946806192,0.11695398390293121
1781545725344509,733731028,0.17080970108509064,-0.0057624103501439095,0.0034986890386790037,-0.9852810502052307,0.09506276994943619,-0.07678116112947464,9.736223220825195,0.7092348337173462,0.08130110055208206,0.031061800196766853
1781545725345733,733747695,0.17080436646938324,-0.00575404753908515,0.0034957167226821184,-0.9852820038795471,0.09225184470415115,-0.10488300770521164,9.739060401916504,0.730711042881012,0.0816468819975853,0.044009018689394
1781545725374059,733764362,0.17079788446426392,-0.005761678330600262,0.0034983493387699127,-0.9852830767631531,0.10010877251625061,-0.09067831188440323,9.75287914276123,0.6740429997444153,-0.020105969160795212,0.03777233138680458
1781545725375665,733781029,0.17080838978290558,-0.005767025053501129,0.0035059857182204723,-0.985281229019165,0.10468617081642151,-0.08080440759658813,9.723575592041016,0.6434293985366821,0.0006915428675711155,0.1606556624174118
1781545725404514,733797696,0.17081476747989655,-0.005771749187260866,0.0035109794698655605,-0.9852800965309143,0.09783788025379181,-0.07014372944831848,9.74680233001709,0.6618896722793579,0.001952968304976821,0.13454990088939667
1781545725405737,733814363,0.17081105709075928,-0.005758807994425297,0.003521091304719448,-0.9852807521820068,0.09645746648311615,-0.06636010110378265,9.738563537597656,0.6474313735961914,0.12798024713993073,0.06234771013259888
1781545725434069,733831030,0.1708155870437622,-0.005768376402556896,0.0035252280067652464,-0.98527991771698,0.09775194525718689,-0.0752505511045456,9.771729469299316,0.6619154214859009,-0.031798165291547775,0.11842673271894455
1781545725435733,733847697,0.17080530524253845,-0.005778397433459759,0.0035144686698913574,-0.9852817058563232,0.09758397191762924,-0.08697336167097092,9.750349998474121,0.761868953704834,-0.05199378356337547,0.02017640322446823
1781545725464381,733864364,0.17080499231815338,-0.005777399055659771,0.003506333800032735,-0.985281765460968,0.09259148687124252,-0.08331132680177689,9.732466697692871,0.7573355436325073,0.025414202362298965,0.0906241312623024
1781545725494069,733881031,0.1708073914051056,-0.005789902526885271,0.0035182530991733074,-0.985281229019165,0.09349635988473892,-0.08176282793283463,9.752685546875,0.6057466864585876,-0.042581114917993546,0.1101025864481926
1781545725496112,733897698,0.17080581188201904,-0.005789963994175196,0.003516432363539934,-0.9852814078330994,0.0881892740726471,-0.07827602326869965,9.727752685546875,0.7132687568664551,0.025747163221240044,0.07598646730184555
1781545725524057,733914365,0.17079314589500427,-0.005789743270725012,0.003517676377668977,-0.985283613204956,0.09346418082714081,-0.08209899812936783,9.741252899169922,0.6923176646232605,0.03158685937523842,-0.0006915428675711155
1781545725526012,733931032,0.17080026865005493,-0.0057797180488705635,0.0035053924657404423,-0.9852825403213501,0.08546062558889389,-0.08865417540073395,9.765063285827637,0.7963308095932007,0.08148039877414703,0.1454097032546997
1781545725554425,733947699,0.17080627381801605,-0.005782525520771742,0.0035112383775413036,-0.9852814674377441,0.09943287074565887,-0.09147580713033676,9.747321128845215,0.6583296060562134,0.01586066372692585,0.1331668198108673
1781545725556627,733964366,0.17079731822013855,-0.0057805245742201805,0.0035086628049612045,-0.9852830171585083,0.10295543074607849,-0.07216428965330124,9.750396728515625,0.7205427885055542,0.03906576335430145,0.026003291830420494
1781545725584061,733981033,0.17079763114452362,-0.00578428665176034,0.0035061934031546116,-0.9852829575538635,0.09993702173233032,-0.08019287884235382,9.725839614868164,0.7133073210716248,-0.00011525714944582433,0.09057290852069855
1781545725585802,733997700,0.1708032786846161,-0.00578280258923769,0.0035017896443605423,-0.9852820038795471,0.1053871363401413,-0.09388618171215057,9.737444877624512,0.7327856421470642,0.032982755452394485,0.12331873178482056
1781545725614607,734014367,0.17081071436405182,-0.005778120364993811,0.003496483201161027,-0.9852806925773621,0.11445637792348862,-0.08010347932577133,9.745548248291016,0.7426466345787048,0.053536947816610336,0.13566406071186066
1781545725644053,734031034,0.17080898582935333,-0.005764861591160297,0.003499298356473446,-0.9852810502052307,0.0865442156791687,-0.08993446081876755,9.758139610290527,0.6974786520004272,0.12141058593988419,0.07479548454284668
1781545725646349,734047701,0.17080889642238617,-0.00577471824362874,0.0034907248336821795,-0.9852811098098755,0.08739526569843292,-0.08052188158035278,9.746874809265137,0.7474361658096313,-0.04861290752887726,0.08913858979940414
1781545725675282,734064368,0.17080223560333252,-0.005772362928837538,0.0034925155341625214,-0.9852822422981262,0.09695097804069519,-0.09513784199953079,9.744128227233887,0.6913315057754517,0.04648064076900482,0.04468775540590286
1781545725676342,734081035,0.1708100289106369,-0.005766664166003466,0.0034903374034911394,-0.9852809309959412,0.09069261699914932,-0.0879460871219635,9.738409042358398,0.7227583527565002,0.06406375765800476,0.13757219910621643
1781545725704062,734097702,0.1708097904920578,-0.005765943787992001,0.0034943886566907167,-0.9852809906005859,0.09124700725078583,-0.08590763062238693,9.75689697265625,0.6742991805076599,0.037938814610242844,0.08478444069623947
1781545725705888,734114369,0.1708165854215622,-0.005769506562501192,0.0034965642262250185,-0.9852797985076904,0.0980953648686409,-0.09660051017999649,9.724565505981445,0.6825079917907715,0.006371158175170422,0.1398901641368866
1781545725734502,734131036,0.17081956565380096,-0.005767276976257563,0.003493555588647723,-0.9852792620658875,0.09297066181898117,-0.08751337230205536,9.730971336364746,0.7242695093154907,0.039590831845998764,0.1205141693353653
1781545725735702,734147703,0.1708247810602188,-0.00577873969450593,0.0034956024028360844,-0.985278308391571,0.10837338864803314,-0.08932650834321976,9.766060829162598,0.6738125085830688,-0.04720420017838478,0.12814673781394958
1781545725764604,734164370,0.17082276940345764,-0.005781137850135565,0.0034976876340806484,-0.9852786660194397,0.11393796652555466,-0.0779648944735527,9.717267036437988,0.6839422583580017,0.014541609212756157,0.07040290534496307
1781545725794053,734181037,0.170821875333786,-0.005791420582681894,0.0035082402173429728,-0.9852787256240845,0.09544897079467773,-0.09454777091741562,9.755468368530273,0.6173877716064453,-0.028955155983567238,0.08051992952823639
1781545725795988,734197704,0.17082208395004272,-0.005782832391560078,0.003511468879878521,-0.9852787256240845,0.09337469190359116,-0.0891655907034874,9.746968269348145,0.6892057061195374,0.09022713452577591,0.08874160051345825
1781545725824078,734214371,0.1708180457353592,-0.005788789596408606,0.0035102814435958862,-0.9852793216705322,0.09723349660634995,-0.09007751196622849,9.748172760009766,0.7019352912902832,-0.01345947477966547,0.06711167842149734
1781545725825671,734231038,0.1708144247531891,-0.005781616549938917,0.0035073459148406982,-0.9852799773216248,0.10259071737527847,-0.08648340404033661,9.73727798461914,0.7292895913124084,0.07350204885005951,0.060990240424871445
1781545725854073,734247705,0.1708063781261444,-0.00577822420746088,0.003499997779726982,-0.9852814078330994,0.10136044025421143,-0.0811656042933464,9.750736236572266,0.7545052766799927,0.042843643575906754,0.03270101174712181
1781545725855954,734264372,0.1708013266324997,-0.005788975395262241,0.003502781270071864,-0.9852822422981262,0.09133633226156235,-0.0954132080078125,9.726136207580566,0.6692662239074707,-0.041159603744745255,0.054266903549432755
1781545725884413,734281039,0.1707962453365326,-0.005779118277132511,0.0035054904874414206,-0.9852831959724426,0.09819907695055008,-0.08699839562177658,9.745672225952148,0.6940976977348328,0.09833355247974396,0.05730200558900833
1781545725886158,734297706,0.17079748213291168,-0.005774411838501692,0.0035029789432883263,-0.9852829575538635,0.11971353739500046,-0.08696263283491135,9.746441841125488,0.7235395312309265,0.057173945009708405,0.09437639266252518
1781545725914291,734314373,0.17080137133598328,-0.00577795784920454,0.003506719833239913,-0.985282301902771,0.09677574783563614,-0.07859788089990616,9.744338989257812,0.6716611385345459,0.00847140047699213,0.11907985061407089
1781545725944064,734331040,0.17079275846481323,-0.005782803054898977,0.0035118802916258574,-0.9852837920188904,0.09301000088453293,-0.08267118036746979,9.747793197631836,0.6600456237792969,0.0017480666283518076,0.03305958956480026
1781545725945695,734347707,0.17080435156822205,-0.005777890328317881,0.0035123813431710005,-0.985281765460968,0.09372524172067642,-0.08569307625293732,9.752006530761719,0.7037665843963623,0.06170739233493805,0.17367330193519592
1781545725974049,734364374,0.1708148568868637,-0.005779989529401064,0.0035018189810216427,-0.9852800369262695,0.09099659323692322,-0.07602301239967346,9.758514404296875,0.7703851461410522,0.0012614253209903836,0.16724452376365662
1781545725975756,734381041,0.1708148866891861,-0.005774106830358505,0.003500927472487092,-0.9852800965309143,0.10719332844018936,-0.07806143909692764,9.737964630126953,0.713947594165802,0.06699641048908234,0.08958681672811508
1781545726004053,734397708,0.1708107739686966,-0.005771076772361994,0.0034905460197478533,-0.9852808713912964,0.08484909683465958,-0.07409901171922684,9.74967098236084,0.7747392654418945,0.03672220557928085,0.05459986999630928
1781545726005899,734414375,0.1708088219165802,-0.005768709350377321,0.0034821040462702513,-0.9852811694145203,0.09699396789073944,-0.0720212310552597,9.760340690612793,0.760844349861145,0.03440425544977188,0.0751156359910965
1781545726034048,734431042,0.1707916110754013,-0.005758172366768122,0.0034857045393437147,-0.9852842092514038,0.10413558036088943,-0.08028227835893631,9.742998123168945,0.6882965564727783,0.10436534881591797,-0.03383437544107437
1781545726035629,734447709,0.17078983783721924,-0.00576365040615201,0.0034752534702420235,-0.9852845072746277,0.08992015570402145,-0.09302788227796555,9.748444557189941,0.7653266787528992,-0.02115608938038349,0.07984118163585663
1781545726064289,734464376,0.17078879475593567,-0.005764778237789869,0.0034815093968063593,-0.985284686088562,0.106370709836483,-0.09005963057279587,9.753439903259277,0.6573819518089294,0.027924245223402977,0.08008450269699097
1781545726094074,734481043,0.17079691588878632,-0.005765272304415703,0.0034764071460813284,-0.9852833151817322,0.11010083556175232,-0.08717004209756851,9.732600212097168,0.7352444529533386,0.01861402578651905,0.1433478593826294
1781545726096140,734497710,0.1707935333251953,-0.005765685345977545,0.003476022509858012,-0.9852839112281799,0.10668177157640457,-0.07981380075216293,9.733875274658203,0.70304936170578,0.025068430230021477,0.06670187413692474
1781545726124078,734514377,0.17078806459903717,-0.00576457753777504,0.003473361022770405,-0.9852848052978516,0.09566707164049149,-0.08839312195777893,9.726873397827148,0.7201330661773682,0.03275223821401596,0.052717335522174835
1781545726125679,734531044,0.1707850992679596,-0.005766226444393396,0.0034800576977431774,-0.9852853417396545,0.09427233785390854,-0.10344180464744568,9.740938186645508,0.653642475605011,0.025004399940371513,0.06858441233634949
1781545726154072,734547711,0.17077885568141937,-0.005768354516476393,0.0034773810766637325,-0.9852864742279053,0.09590315073728561,-0.07108069956302643,9.732705116271973,0.7163552045822144,0.010814962908625603,0.049720652401447296
1781545726155666,734564378,0.17077741026878357,-0.005768184084445238,0.003475044621154666,-0.9852865934371948,0.09579586237668991,-0.06835205107927322,9.751859664916992,0.7168674468994141,0.02674606442451477,0.07190124690532684
1781545726184561,734581045,0.1707749217748642,-0.005776689387857914,0.003477640450000763,-0.985287070274353,0.09680085629224777,-0.10445742309093475,9.741083145141602,0.6733897924423218,-0.026317045092582703,0.0776640996336937
1781545726185978,734597712,0.17078018188476562,-0.005776769947260618,0.0034772371873259544,-0.9852861762046814,0.09393623471260071,-0.08819285035133362,9.747010231018066,0.7037408947944641,0.027053408324718475,0.12588000297546387
1781545726214600,734614379,0.17078180611133575,-0.0057676550932228565,0.003472648561000824,-0.9852859377861023,0.09237700700759888,-0.08140163123607635,9.760950088500977,0.7428386807441711,0.08451550453901291,0.10316154360771179
1781545726244465,734631046,0.1707967221736908,-0.005764679983258247,0.0034716837108135223,-0.985283374786377,0.10154283046722412,-0.08330775052309036,9.7374906539917,0.7115015387535095,0.046762384474277496,0.1893610954284668
1781545726245937,734647713,0.17079290747642517,-0.005767459515482187,0.003473229706287384,-0.9852840304374695,0.09767337143421173,-0.09364298731088638,9.738302230834961,0.6870414614677429,0.01137844193726778,0.055867698043584824
1781545726274082,734664380,0.17079487442970276,-0.00576632609590888,0.0034804774913936853,-0.9852836728096008,0.08840732276439667,-0.08858266472816467,9.734841346740723,0.653296709060669,0.0443163700401783,0.1054154634475708
1781545726275999,734681047,0.17079132795333862,-0.005763683933764696,0.003484952962026,-0.985284149646759,0.09584598988294601,-0.07909853756427765,9.744154930114746,0.6736972332000732,0.05144951120018959,0.06722693145275116
1781545726305143,734697714,0.17079558968544006,-0.005760325584560633,0.003483949927613139,-0.9852834939956665,0.10419280081987381,-0.08289290964603424,9.734307289123535,0.7118857502937317,0.04959258809685707,0.1247914656996727
1781545726306105,734714381,0.17079944908618927,-0.005764382425695658,0.003473066259175539,-0.985282838344574,0.099772609770298,-0.09180481731891632,9.74934196472168,0.7700138092041016,-0.012191643938422203,0.11607035249471664
1781545726334496,734731048,0.17080047726631165,-0.005761612672358751,0.0034785978496074677,-0.9852826595306396,0.09345702826976776,-0.08337927609682083,9.731636047363281,0.6668330430984497,0.053421683609485626,0.09788533300161362
1781545726335696,734747715,0.17079848051071167,-0.0057620215229690075,0.0034868952352553606,-0.9852830171585083,0.1049831435084343,-0.09073195606470108,9.724393844604492,0.6442553997039795,0.03519824892282486,0.07789462059736252
1781545726364607,734764382,0.17080055177211761,-0.005769773852080107,0.0034936685115098953,-0.9852825999259949,0.1001230776309967,-0.09165461361408234,9.750300407409668,0.6460226774215698,-0.01643054559826851,0.1033792644739151
1781545726394388,734781049,0.1708088219165802,-0.0057606943883001804,0.0035007870756089687,-0.9852811694145203,0.09494460374116898,-0.07890188694000244,9.732763290405273,0.6637467741966248,0.09783411771059036,0.1440906524658203
1781545726396335,734797716,0.1708095520734787,-0.005760311149060726,0.003506141249090433,-0.9852810502052307,0.102418914437294,-0.07459969818592072,9.742619514465332,0.6651425957679749,0.037042368203401566,0.09732186794281006
1781545726424081,734814383,0.1708163022994995,-0.005761599168181419,0.003500476246699691,-0.98527991771698,0.08947312831878662,-0.08027154952287674,9.754441261291504,0.7380875945091248,0.012633463367819786,0.13150198757648468
1781545726426017,734831050,0.1708180010318756,-0.005757247097790241,0.0034963602665811777,-0.9852796196937561,0.0896376371383667,-0.06654606759548187,9.743967056274414,0.7340662479400635,0.052768561989068985,0.1019449383020401
1781545726454064,734847717,0.1708211451768875,-0.00576536450535059,0.00349614885635674,-0.9852790236473083,0.10463982820510864,-0.07478922605514526,9.745379447937012,0.6929707527160645,-0.027149461209774017,0.11128076910972595
1781545726455747,734864384,0.1708301603794098,-0.005768844857811928,0.003493658034130931,-0.9852774739265442,0.10738292336463928,-0.09409715235233307,9.758692741394043,0.7139603495597839,0.0014279078459367156,0.14980225265026093
1781545726484072,734881051,0.17083604633808136,-0.005774680059403181,0.0034964613150805235,-0.9852764010429382,0.09076771885156631,-0.08488485962152481,9.760016441345215,0.6753748655319214,-0.00822167657315731,0.13096414506435394
1781545726485893,734897718,0.17083227634429932,-0.005781868472695351,0.0034963081125169992,-0.985276997089386,0.09161879867315292,-0.07521837204694748,9.743420600891113,0.6932910084724426,-0.020515771582722664,0.06020905822515488
1781545726514801,734914385,0.1708330512046814,-0.005789074581116438,0.0034954422153532505,-0.9852768182754517,0.09043513238430023,-0.07245038449764252,9.748040199279785,0.6982597708702087,-0.021617116406559944,0.09442760795354843
1781545726544066,734931052,0.17084334790706635,-0.005791043862700462,0.003492505755275488,-0.9852750301361084,0.09773416817188263,-0.07344099134206772,9.74962043762207,0.7188780307769775,0.011071089655160904,0.16167376935482025
1781545726545705,734947719,0.17084082961082458,-0.005786344408988953,0.003492743242532015,-0.9852754473686218,0.088174968957901,-0.08251383155584335,9.742626190185547,0.7047014236450195,0.06041395291686058,0.07263121753931046
1781545726574083,734964386,0.17083589732646942,-0.005775894038379192,0.003487546928226948,-0.9852763414382935,0.09555983543395996,-0.08588261902332306,9.7491455078125,0.7482557892799377,0.09299330413341522,0.06063166260719299
1781545726575810,734981053,0.1708301454782486,-0.005776623263955116,0.0035017982590943575,-0.9852772951126099,0.0965111032128334,-0.08273912966251373,9.745222091674805,0.6032495498657227,0.04016711935400963,0.05171844735741615
1781545726604083,734997720,0.1708349734544754,-0.005782237742096186,0.003500718390569091,-0.9852764010429382,0.09215528517961502,-0.07195328921079636,9.733488082885742,0.7018712162971497,-0.011269588023424149,0.12261439859867096
1781545726605798,735014387,0.17083869874477386,-0.005787024740129709,0.003497469937428832,-0.9852758049964905,0.0776071697473526,-0.08237794041633606,9.747157096862793,0.7172901034355164,-0.00809361319988966,0.1087835282087326
1781545726634066,735031054,0.17085540294647217,-0.005805233493447304,0.0034968447871506214,-0.9852728247642517,0.10204331576824188,-0.09210877120494843,9.737394332885742,0.6843137145042419,-0.0963933914899826,0.2029358148574829
1781545726635783,735047721,0.17084836959838867,-0.005793785210698843,0.00349168898537755,-0.9852741360664368,0.08926928788423538,-0.09403637051582336,9.75039005279541,0.7491266131401062,0.09985750913619995,0.04484143480658531
1781545726664300,735064388,0.17084240913391113,-0.005798364989459515,0.0034987847320735455,-0.985275149345398,0.08725588023662567,-0.08457014709711075,9.742168426513672,0.6472648978233337,0.005641196854412556,0.048311952501535416
1781545726694071,735081055,0.17085547745227814,-0.005797667894512415,0.0034996250178664923,-0.9852728843688965,0.09987614303827286,-0.09336048364639282,9.730466842651367,0.6964668035507202,0.03348219767212868,0.18012768030166626
1781545726695671,735097722,0.17085525393486023,-0.005792105570435524,0.003505269531160593,-0.9852729439735413,0.09114322066307068,-0.07253263890743256,9.72780990600586,0.6692150235176086,0.07245191931724548,0.09700169414281845
1781545726724096,735114389,0.1708545833826065,-0.005796997807919979,0.003508597146719694,-0.9852730631828308,0.10019826143980026,-0.08803548663854599,9.739219665527344,0.6726086735725403,-0.0010757333366200328,0.08753780275583267
1781545726727096,735131056,0.1708650290966034,-0.005793995689600706,0.003500831313431263,-0.985271155834198,0.0881640687584877,-0.09344988316297531,9.736625671386719,0.7574507594108582,0.03905295953154564,0.16368433833122253
1781545726754067,735147723,0.17086493968963623,-0.005793618503957987,0.003484252607449889,-0.9852713346481323,0.0988570973277092,-0.07627692818641663,9.762441635131836,0.8136450052261353,0.01127599086612463,0.08191581070423126
1781545726755952,735164390,0.17086268961429596,-0.005790850147604942,0.0034763417206704617,-0.985271692276001,0.1042679026722908,-0.08004982769489288,9.727455139160156,0.7575275301933289,0.03770828992128372,0.07254155725240707
1781545726784077,735181057,0.17086103558540344,-0.005799660924822092,0.003481782041490078,-0.9852719306945801,0.0887078195810318,-0.09407570958137512,9.74260425567627,0.6536296606063843,-0.02510044351220131,0.080020472407341
1781545726785883,735197724,0.17086195945739746,-0.005804949440062046,0.0034802849404513836,-0.985271692276001,0.103277288377285,-0.08174137026071548,9.73123550415039,0.704931914806366,-0.009451085701584816,0.09114919602870941
1781545726814302,735214391,0.17086447775363922,-0.005804205313324928,0.003481894265860319,-0.9852713346481323,0.11396657675504684,-0.08942663669586182,9.745676040649414,0.6909089088439941,0.03500615432858467,0.11093498766422272
1781545726844445,735231058,0.17086897790431976,-0.005800217855721712,0.003477757563814521,-0.9852705597877502,0.10580209642648697,-0.0706193670630455,9.762431144714355,0.7337334156036377,0.05014326795935631,0.12055258452892303
1781545726846279,735247725,0.17087125778198242,-0.00579996220767498,0.003483741544187069,-0.9852701425552368,0.09293847531080246,-0.07414192706346512,9.737848281860352,0.660609245300293,0.03686307743191719,0.10458305478096008
1781545726874074,735264392,0.17087048292160034,-0.005799937527626753,0.003482071217149496,-0.9852702617645264,0.0946764275431633,-0.08435200899839401,9.754166603088379,0.7121546864509583,0.02638748288154602,0.08747377246618271
1781545726876242,735281059,0.1708706170320511,-0.005789893679320812,0.0034815154504030943,-0.9852702617645264,0.1011529341340065,-0.08160191774368286,9.729522705078125,0.7164319753646851,0.09552895277738571,0.08924104273319244
1781545726904455,735297726,0.17086459696292877,-0.005779589526355267,0.0034881809260696173,-0.9852713942527771,0.10317358374595642,-0.08330775052309036,9.739107131958008,0.6675501465797424,0.10601736605167389,0.04495668783783913
1781545726905976,735314393,0.17086194455623627,-0.005792723037302494,0.0034858647268265486,-0.9852718114852905,0.09910742938518524,-0.07917723059654236,9.73803424835205,0.7009234428405762,-0.06339142471551895,0.06831547617912292
1781545726935336,735331060,0.17086273431777954,-0.005798253696411848,0.003478686325252056,-0.9852716326713562,0.09063906222581863,-0.08372257649898529,9.754426002502441,0.7429155111312866,-0.017672762274742126,0.08764025568962097
1781545726937015,735347727,0.17086605727672577,-0.00579038355499506,0.003481233259662986,-0.9852710962295532,0.09449412673711777,-0.08219197392463684,9.759233474731445,0.6929707527160645,0.08436182886362076,0.11809374392032623
1781545726964657,735364394,0.17086681723594666,-0.005787248723208904,0.0034701162949204445,-0.9852710366249084,0.1018146201968193,-0.08956253528594971,9.739747047424316,0.7799771428108215,0.03631240501999855,0.09559299796819687
1781545726994081,735381061,0.17085842788219452,-0.005792683456093073,0.0034632801543921232,-0.9852724671363831,0.09437253326177597,-0.0856894999742508,9.754759788513184,0.740507960319519,-0.016417738050222397,0.027680926024913788
1781545726997009,735397728,0.1708652377128601,-0.00578710064291954,0.003457071492448449,-0.9852712750434875,0.08592539280653,-0.08418750762939453,9.736889839172363,0.7497157454490662,0.058428965508937836,0.13721363246440887
1781545727024061,735414395,0.17085331678390503,-0.005794094875454903,0.003461735090240836,-0.9852733612060547,0.09510207176208496,-0.09088931232690811,9.74573040008545,0.6606219410896301,-0.01335702370852232,0.005000879522413015
1781545727026080,735431062,0.17086386680603027,-0.005790626630187035,0.0034731084015220404,-0.9852715730667114,0.09510207921266556,-0.08583970367908478,9.748315811157227,0.6282346844673157,0.06466566026210785,0.1651827096939087
1781545727054055,735447729,0.1708681881427765,-0.005778106860816479,0.0034691649489104748,-0.9852709174156189,0.10220085084438324,-0.08923352509737015,9.742532730102539,0.7424289584159851,0.1081688404083252,0.12130814790725708
1781545727055758,735464396,0.17087005078792572,-0.005775799509137869,0.0034805689938366413,-0.9852705597877502,0.11875493079423904,-0.08538196980953217,9.750354766845703,0.62642902135849,0.05704588070511818,0.10994891077280045
1781545727084059,735481063,0.17087925970554352,-0.0057757762260735035,0.003474249504506588,-0.9852690100669861,0.09093579649925232,-0.08647984266281128,9.737507820129395,0.7439913153648376,0.020599013194441795,0.15292701125144958
1781545727085650,735497730,0.17087949812412262,-0.005774863995611668,0.0034792637452483177,-0.9852688312530518,0.10489381849765778,-0.09674353897571564,9.740175247192383,0.6679344773292542,0.04020553454756737,0.09400501847267151
1781545727114290,735514397,0.17089037597179413,-0.005769849289208651,0.0034805028699338436,-0.9852669835090637,0.10226880013942719,-0.07110214978456497,9.739736557006836,0.6986567974090576,0.06324415653944016,0.16744941473007202
1781545727144521,735531064,0.1708999127149582,-0.005761798936873674,0.0034922051709145308,-0.98526531457901,0.10880610346794128,-0.05898953974246979,9.735322952270508,0.6313722133636475,0.09614365547895432,0.15516813099384308
1781545727145879,735547731,0.17089064419269562,-0.005762652959674597,0.003494679694995284,-0.985266923904419,0.10877392441034317,-0.07379861176013947,9.725914001464844,0.6827513575553894,0.02552945911884308,0.02724551223218441
1781545727174043,735564398,0.1708921641111374,-0.0057636434212327,0.0034972040448337793,-0.9852666854858398,0.09123620390892029,-0.07920226454734802,9.750629425048828,0.6826873421669006,0.024364078417420387,0.10038257390260696
1781545727175618,735581065,0.17087915539741516,-0.005754646845161915,0.003496703691780567,-0.9852690100669861,0.10348113626241684,-0.0835723876953125,9.759208679199219,0.7145495414733887,0.08884405344724655,0.006678510922938585
1781545727204055,735597732,0.17086662352085114,-0.0057588298805058,0.003496452933177352,-0.9852712154388428,0.10972876846790314,-0.08547850698232651,9.745454788208008,0.697260856628418,-8.964443986769766e-05,-0.0005122539587318897
1781545727207009,735614399,0.17087246477603912,-0.005763580556958914,0.003499244572594762,-0.985270082950592,0.0899953842163086,-0.08086161315441132,9.753252983093262,0.6766042709350586,-0.00098608888220042,0.1342681646347046
1781545727234071,735631066,0.17086853086948395,-0.005760852713137865,0.0035049086436629295,-0.9852707386016846,0.09751959890127182,-0.08504220843315125,9.746824264526367,0.6654883623123169,0.05338326469063759,0.06992907077074051
1781545727235990,735647733,0.17086902260780334,-0.0057683661580085754,0.003505788743495941,-0.985270619392395,0.10187184065580368,-0.0841374322772026,9.738502502441406,0.6861449480056763,-0.021770792081952095,0.09563140571117401
1781545727264301,735664400,0.17085754871368408,-0.005774528719484806,0.0035026096738874912,-0.9852725863456726,0.09536314755678177,-0.08055048435926437,9.751289367675781,0.7146520614624023,-0.016968414187431335,0.01148089300841093
1781545727294064,735681067,0.17084723711013794,-0.005759164225310087,0.003495969111099839,-0.9852744936943054,0.10815165936946869,-0.08881153166294098,9.742311477661133,0.6873745322227478,0.0364660881459713,0.02253277413547039
1781545727295774,735697734,0.17084768414497375,-0.0057626268826425076,0.003494461765512824,-0.9852744340896606,0.09928624331951141,-0.0914507731795311,9.720475196838379,0.7068784832954407,0.002849412616342306,0.0878707617521286
1781545727324062,735714401,0.17085495591163635,-0.005768972914665937,0.0034955034498125315,-0.9852731227874756,0.09333901107311249,-0.08178786188364029,9.74693489074707,0.6863626837730408,-0.013894886709749699,0.1396980583667755
1781545727326179,735731068,0.17084594070911407,-0.005762599874287844,0.0034897879231721163,-0.9852747321128845,0.10972876846790314,-0.0819559395313263,9.755428314208984,0.7465269565582275,0.06479372084140778,0.029704326763749123
1781545727354072,735747735,0.17083612084388733,-0.0057664476335048676,0.0034936193842440844,-0.985276460647583,0.09355715662240982,-0.08645480871200562,9.725488662719727,0.6698424220085144,0.006832187529653311,0.0188189297914505
1781545727357052,735764402,0.1708499938249588,-0.005758217535912991,0.0034922773484140635,-0.985274076461792,0.10118163377046585,-0.07186388224363327,9.730470657348633,0.7199153304100037,0.08186458796262741,0.1829451024532318
1781545727384527,735781069,0.1708405315876007,-0.005758228711783886,0.003489360911771655,-0.9852756857872009,0.10110653191804886,-0.07152056694030762,9.746938705444336,0.7201458811759949,0.024863524362444878,0.02408233843743801
1781545727386040,735797736,0.17084984481334686,-0.005753426346927881,0.0034769419580698013,-0.9852741360664368,0.08766698092222214,-0.08581826090812683,9.751194953918457,0.7907600402832031,0.04572506994009018,0.1544893980026245
1781545727414782,735814403,0.17085176706314087,-0.005751557182520628,0.0034878349397331476,-0.9852737188339233,0.10165369510650635,-0.08058983087539673,9.748322486877441,0.629156768321991,0.053472910076379776,0.1043909564614296
1781545727444544,735831070,0.17084482312202454,-0.00575888529419899,0.0034847683273255825,-0.9852749705314636,0.0849742591381073,-0.07945259660482407,9.727884292602539,0.7125004529953003,-0.024946769699454308,0.04206245392560959
1781545727446945,735847737,0.17084844410419464,-0.005757298320531845,0.0034866186324507,-0.9852743148803711,0.09593891352415085,-0.0878995954990387,9.732576370239258,0.6902174353599548,0.040897078812122345,0.1159166768193245
1781545727474591,735864404,0.1708475798368454,-0.005752378609031439,0.0034897923469543457,-0.9852745532989502,0.090642549097538,-0.09892147034406662,9.749288558959961,0.6849539875984192,0.06516511738300323,0.08107059448957443
1781545727476670,735881071,0.17084252834320068,-0.0057565029710531235,0.003494780045002699,-0.985275387763977,0.0947265774011612,-0.0886005386710167,9.732376098632812,0.6618897318840027,0.006153451278805733,0.0528838187456131
1781545727504673,735897738,0.17084001004695892,-0.005748930387198925,0.003490723669528961,-0.98527592420578,0.09077479690313339,-0.07548659294843674,9.737104415893555,0.7369092702865601,0.07469303160905838,0.07115846872329712
1781545727507262,735914405,0.17084132134914398,-0.005746769718825817,0.003498088102787733,-0.9852756857872009,0.10504385083913803,-0.0903242826461792,9.738677978515625,0.6534503698348999,0.05128302425146103,0.0998959168791771
1781545727534381,735931072,0.17084376513957977,-0.005749196745455265,0.0034980569034814835,-0.9852752685546875,0.10438233613967896,-0.08218839764595032,9.760635375976562,0.6980933547019958,0.011506506241858006,0.10974401235580444
1781545727536497,735947739,0.1708417385816574,-0.00574150588363409,0.003496037796139717,-0.9852755665779114,0.1033988818526268,-0.08880795538425446,9.731682777404785,0.7233089804649353,0.07785619795322418,0.0797131210565567
1781545727564616,735964406,0.17084947228431702,-0.005746812094002962,0.003491536248475313,-0.9852741360664368,0.10130322724580765,-0.08644050359725952,9.734597206115723,0.7252556085586548,-0.01335702184587717,0.1399029791355133
1781545727594383,735981073,0.1708507388830185,-0.0057415589690208435,0.0034966454841196537,-0.985274076461792,0.10789775103330612,-0.08169130235910416,9.75419807434082,0.6723781824111938,0.06958330422639847,0.10336645692586899
1781545727596476,735997740,0.17084692418575287,-0.005738819483667612,0.0034967653919011354,-0.985274612903595,0.1046326756477356,-0.09180839359760284,9.748332977294922,0.7028829455375671,0.04689044877886772,0.062386129051446915
1781545727624458,736014407,0.17085030674934387,-0.005746455397456884,0.0034998373594135046,-0.985274076461792,0.1120246946811676,-0.08460233360528946,9.731568336486816,0.6710591316223145,-0.020157193765044212,0.11544283479452133
1781545727626692,736031074,0.17084801197052002,-0.005752259399741888,0.003493743948638439,-0.9852744340896606,0.09262027591466904,-0.09180480241775513,9.733501434326172,0.7351677417755127,-0.018351498991250992,0.07863739877939224
1781545727654453,736047741,0.17084401845932007,-0.0057446821592748165,0.003492215648293495,-0.9852752089500427,0.10192906111478806,-0.08349370956420898,9.740816116333008,0.7197744846343994,0.0777793601155281,0.05860826000571251
1781545727656678,736064408,0.17084433138370514,-0.005744595546275377,0.0034905709326267242,-0.985275149345398,0.09577082842588425,-0.08975207805633545,9.726457595825195,0.7119370102882385,0.026720451191067696,0.09742431342601776
1781545727684455,736081075,0.17085303366184235,-0.0057327463291585445,0.003492605173960328,-0.9852737188339233,0.08933723717927933,-0.07968862354755402,9.740791320800781,0.7010772228240967,0.1105252057313919,0.14514076709747314
1781545727686594,736097742,0.1708395779132843,-0.005741773173213005,0.003490336472168565,-0.9852759838104248,0.0965111032128334,-0.08737388253211975,9.737030982971191,0.7048934698104858,-0.03533271700143814,-0.0011141523718833923
1781545727714955,736114409,0.1708352118730545,-0.005745333153754473,0.0034874125849455595,-0.9852767586708069,0.10824821889400482,-0.07805072516202927,9.727959632873535,0.7160733938217163,0.0007491714786738157,0.055765245109796524
1781545727745614,736131076,0.17084278166294098,-0.005752343684434891,0.0034881888423115015,-0.985275387763977,0.09061751514673233,-0.0884038433432579,9.737865447998047,0.6874768137931824,-0.018710074946284294,0.14378328621387482
1781545727747825,736147743,0.17084629833698273,-0.005758833605796099,0.0034826970659196377,-0.9852747321128845,0.11047608405351639,-0.08056480437517166,9.736239433288574,0.7303269505500793,-0.022436724975705147,0.11493059247732162
1781545727774980,736164410,0.17084991931915283,-0.005767176393419504,0.0034830260556191206,-0.9852740168571472,0.100090891122818,-0.0894695520401001,9.748612403869629,0.6886934041976929,-0.02812274359166622,0.11813216656446457
1781545727777749,736181077,0.170853853225708,-0.005766034126281738,0.0034804304596036673,-0.9852733016014099,0.1002054363489151,-0.08814991265535355,9.752473831176758,0.7197616696357727,0.0326882041990757,0.11764552444219589
1781545727804596,736197744,0.17085212469100952,-0.005762643180787563,0.0034857001155614853,-0.9852735996246338,0.0875454843044281,-0.07978162169456482,9.739568710327148,0.6687155961990356,0.05740446597337723,0.07250314950942993
1781545727806531,736214411,0.17086119949817657,-0.00575993349775672,0.00348099647089839,-0.9852721095085144,0.1026514545083046,-0.07282588630914688,9.744306564331055,0.7359873056411743,0.04065375775098801,0.158344104886055
1781545727835373,736231078,0.17085960507392883,-0.005755195859819651,0.003482915461063385,-0.9852723479270935,0.10187184065580368,-0.08797827363014221,9.745261192321777,0.6931500434875488,0.06252700835466385,0.07900877296924591
1781545727837080,736247745,0.17085996270179749,-0.005758265033364296,0.0034798537380993366,-0.9852724075317383,0.10368140041828156,-0.07462829351425171,9.740233421325684,0.7178663015365601,0.00369463162496686,0.09376168251037598
1781545727864690,736264412,0.1708538830280304,-0.005759022664278746,0.0034726455342024565,-0.9852734804153442,0.09608196467161179,-0.0839228555560112,9.74600887298584,0.7485119104385376,0.014631254598498344,0.05223069339990616
1781545727894758,736281079,0.17085392773151398,-0.005758197978138924,0.0034657400101423264,-0.9852734804153442,0.10006934404373169,-0.08630461245775223,9.75045108795166,0.7483069896697998,0.025619100779294968,0.08760183304548264
1781545727896154,736297746,0.17085450887680054,-0.00575538445264101,0.0034623313695192337,-0.9852733612060547,0.09217316657304764,-0.08688037842512131,9.751319885253906,0.7270997166633606,0.043163806200027466,0.09609244018793106
1781545727924678,736314413,0.1708642840385437,-0.005764172412455082,0.003461043583229184,-0.9852716326713562,0.08841799944639206,-0.09451916068792343,9.771146774291992,0.6992970705032349,-0.033194057643413544,0.15511690080165863
1781545727926454,736331080,0.17085552215576172,-0.005764538887888193,0.00345851038582623,-0.9852731227874756,0.1023009866476059,-0.08599705994129181,9.769425392150879,0.7168673872947693,0.023006606847047806,0.022340675815939903
1781545727954647,736347747,0.17085224390029907,-0.0057632895186543465,0.0034564142115414143,-0.9852737188339233,0.09454777091741562,-0.0804932713508606,9.746795654296875,0.7161502242088318,0.03421216085553169,0.06804653257131577
1781545727956525,736364414,0.17083869874477386,-0.005757313687354326,0.0034638899378478527,-0.9852761030197144,0.09152586758136749,-0.08926927298307419,9.743804931640625,0.6564982533454895,0.07781778275966644,-0.004866412840783596
1781545727984581,736381081,0.1708352118730545,-0.0057501341216266155,0.003458555554971099,-0.9852767586708069,0.09282761067152023,-0.07939895242452621,9.737071990966797,0.7450157403945923,0.0706334263086319,0.06262945383787155
1781545727986545,736397748,0.17084339261054993,-0.005750982090830803,0.003458478255197406,-0.9852753281593323,0.10024108737707138,-0.07964571565389633,9.753251075744629,0.7004880905151367,0.021994905546307564,0.15200497210025787
1781545728030725,736414415,0.17085224390029907,-0.005742336623370647,0.0034609464928507805,-0.9852738380432129,0.09752675145864487,-0.08432696759700775,9.74667739868164,0.6943410038948059,0.08933068811893463,0.15255562961101532
1781545728045339,736431082,0.17085674405097961,-0.0057355198077857494,0.003463184693828225,-0.9852731823921204,0.0939721092581749,-0.08126571029424667,9.729446411132812,0.6936494708061218,0.07676766812801361,0.12226863205432892
1781545728046639,736447749,0.1708565056324005,-0.005734615959227085,0.0034598475322127342,-0.9852731227874756,0.10755801200866699,-0.08672302961349487,9.730624198913574,0.724166989326477,0.030395865440368652,0.08242806047201157
1781545728074765,736464416,0.17086125910282135,-0.00572581822052598,0.0034546845126897097,-0.9852723479270935,0.09941141307353973,-0.07725322991609573,9.737462043762207,0.7461683750152588,0.08150600641965866,0.12722468376159668
1781545728077017,736481083,0.17085000872612,-0.005725944880396128,0.0034508169628679752,-0.9852743744850159,0.09486246854066849,-0.08702701330184937,9.734089851379395,0.7262672781944275,0.023147478699684143,0.007152346428483725
1781545728104650,736497750,0.17084701359272003,-0.005726945586502552,0.0034567362163215876,-0.9852749109268188,0.1028660237789154,-0.08193090558052063,9.736417770385742,0.6592773199081421,0.028372466564178467,0.07406552135944366
1781545728106498,736514417,0.17084257304668427,-0.005728722084313631,0.003460751613602042,-0.9852756857872009,0.091547392308712,-0.07955987006425858,9.762887001037598,0.6712128520011902,0.020944783464074135,0.06277032196521759
1781545728134080,736531084,0.1708429604768753,-0.005736225750297308,0.0034569529816508293,-0.9852755665779114,0.09917895495891571,-0.08047181367874146,9.735590934753418,0.7175846099853516,-0.02716226689517498,0.09436359256505966
1781545728135765,736547751,0.17084933817386627,-0.005727584008127451,0.0034531555138528347,-0.9852744936943054,0.10813377797603607,-0.07957776635885239,9.742154121398926,0.7367043495178223,0.08201826363801956,0.1375337839126587
1781545728164302,736564418,0.17084592580795288,-0.005722301080822945,0.003455858677625656,-0.985275149345398,0.1007632166147232,-0.08954823017120361,9.751859664916992,0.6883732676506042,0.06723973900079727,0.06558772176504135
1781545728194081,736581085,0.17085199058055878,-0.005717143416404724,0.0034570558927953243,-0.9852741360664368,0.10858795791864395,-0.08567161858081818,9.75091552734375,0.6987593173980713,0.0643070861697197,0.1329491287469864
1781545728195707,736597752,0.17084062099456787,-0.005720147863030434,0.0034694201312959194,-0.9852760434150696,0.09570646286010742,-0.0889831930398941,9.754663467407227,0.612803041934967,0.022712059319019318,0.005257006268948317
1781545728224074,736614419,0.17083527147769928,-0.0057085128501057625,0.0034650168381631374,-0.9852770566940308,0.09872477501630783,-0.08668369054794312,9.730609893798828,0.743876039981842,0.10195775330066681,0.05463828891515732
1781545728225828,736631086,0.17082750797271729,-0.005718220490962267,0.0034634198527783155,-0.9852783679962158,0.09028135240077972,-0.08220627903938293,9.74103832244873,0.6998093724250793,-0.03928988054394722,0.04030798375606537
1781545728254085,736647753,0.1708255410194397,-0.005709510296583176,0.0034558000043034554,-0.985278844833374,0.10023026913404465,-0.07835829257965088,9.722488403320312,0.7624964118003845,0.07821477949619293,0.0836830884218216
1781545728255897,736664420,0.17083080112934113,-0.005705727729946375,0.0034525610972195864,-0.9852778315544128,0.09782715141773224,-0.0915580615401268,9.751276969909668,0.727125346660614,0.049823105335235596,0.12588003277778625
1781545728284077,736681087,0.17083100974559784,-0.005693967454135418,0.003451819531619549,-0.9852778911590576,0.0983348935842514,-0.09505560994148254,9.724985122680664,0.719454288482666,0.10697784274816513,0.08574490249156952
1781545728285847,736697754,0.17082706093788147,-0.005689198616892099,0.003443790366873145,-0.9852786660194397,0.09358934313058853,-0.08475968986749649,9.740830421447754,0.7604089975357056,0.0511549636721611,0.0619635246694088
1781545728314305,736714421,0.170829638838768,-0.0056880987249314785,0.0034535203594714403,-0.9852781295776367,0.08457749336957932,-0.10092411935329437,9.734281539916992,0.6360721588134766,0.04694167152047157,0.11140883713960648
1781545728344165,736731088,0.17084239423274994,-0.005682556424289942,0.003448386210948229,-0.98527592420578,0.09452273696660995,-0.07787548750638962,9.750625610351562,0.7423137426376343,0.05926138907670975,0.18235602974891663
1781545728346186,736747755,0.17084532976150513,-0.0056854174472391605,0.0034494888968765736,-0.9852754473686218,0.09016691148281097,-0.07909497618675232,9.71480655670166,0.6898204684257507,0.00999535620212555,0.10953912138938904
1781545728374067,736764422,0.17083770036697388,-0.005684277508407831,0.0034491149708628654,-0.9852767586708069,0.09904667735099792,-0.07491438090801239,9.744179725646973,0.7041507363319397,0.03572331368923187,0.036184340715408325
1781545728376101,736781089,0.170834019780159,-0.005689005833119154,0.0034455375280231237,-0.9852773547172546,0.09963671118021011,-0.08699124306440353,9.744671821594238,0.7190957069396973,-0.007952743209898472,0.0653315857052803
1781545728404444,736797756,0.17084483802318573,-0.0056934719905257225,0.003440631553530693,-0.9852754473686218,0.09426882117986679,-0.09365371614694595,9.74658489227295,0.7288285493850708,-0.008132030256092548,0.16501621901988983
1781545728405984,736814423,0.17083995044231415,-0.00570266367867589,0.0034305257722735405,-0.9852762222290039,0.10504399985074997,-0.09611771255731583,9.751875877380371,0.7579245567321777,-0.04580831155180931,0.057775843888521194
1781545728434056,736831090,0.170841783285141,-0.005703235510736704,0.0034294661600142717,-0.9852759838104248,0.10045576095581055,-0.09511995315551758,9.731574058532715,0.7071859240531921,0.023006606847047806,0.10341767966747284
1781545728435593,736847757,0.1708402931690216,-0.005712095648050308,0.0034328552428632975,-0.9852762222290039,0.0968758761882782,-0.09180839359760284,9.742271423339844,0.6671147346496582,-0.027841003611683846,0.08356783539056778
1781545728464626,736864424,0.17084671556949615,-0.005700970068573952,0.003433735342696309,-0.985275149345398,0.10366709530353546,-0.08459518104791641,9.751580238342285,0.7078901529312134,0.10437814891338348,0.13954438269138336
1781545728494093,736881091,0.17084111273288727,-0.0057003190740942955,0.003422263078391552,-0.9852762222290039,0.08947670459747314,-0.0853104218840599,9.733144760131836,0.7788373827934265,0.019305573776364326,0.051667220890522
1781545728495635,736897758,0.17083820700645447,-0.005693894810974598,0.0034233222249895334,-0.9852768182754517,0.09408286213874817,-0.09320668876171112,9.74333381652832,0.7007186412811279,0.07304100692272186,0.07099200040102005
1781545728524073,736914425,0.1708468347787857,-0.005688581615686417,0.0034239827655255795,-0.9852752685546875,0.10115302354097366,-0.09067831188440323,9.748862266540527,0.7025371789932251,0.06469127535820007,0.15268370509147644
1781545728525868,736931092,0.17083771526813507,-0.005689313169568777,0.003423064947128296,-0.9852768182754517,0.10864875465631485,-0.09009896963834763,9.748741149902344,0.7055849432945251,0.02241751365363598,0.031202666461467743
1781545728554362,736947759,0.17083509266376495,-0.005688590928912163,0.003416535910218954,-0.9852772951126099,0.08546770364046097,-0.08335781842470169,9.748967170715332,0.7455536127090454,0.02547823265194893,0.07300259172916412
1781545728555675,736964426,0.17084218561649323,-0.005690848920494318,0.0034248908050358295,-0.9852760434150696,0.09648249298334122,-0.09073195606470108,9.74404525756836,0.6415661573410034,0.022507159039378166,0.13985173404216766
1781545728584063,736981093,0.17083391547203064,-0.0056851389817893505,0.00343467784114182,-0.985277533531189,0.08844318240880966,-0.08062201738357544,9.74071216583252,0.6406823992729187,0.07857336103916168,0.037733908742666245
1781545728585636,736997760,0.1708429902791977,-0.005695038475096226,0.0034319565165787935,-0.9852758646011353,0.08622235804796219,-0.07984955608844757,9.747746467590332,0.7076084017753601,-0.04231218248605728,0.15149269998073578
1781545728614292,737014427,0.1708386242389679,-0.005692468024790287,0.003424376016482711,-0.9852766394615173,0.10654594749212265,-0.087062768638134,9.748762130737305,0.754774272441864,0.036837462335824966,0.06041395291686058
1781545728644084,737031094,0.1708333045244217,-0.0056881168857216835,0.0034132427535951138,-0.9852776527404785,0.09696885943412781,-0.08576817810535431,9.737754821777344,0.7808735966682434,0.04477740079164505,0.05242278799414635
1781545728645726,737047761,0.17083510756492615,-0.005680328235030174,0.0034180243965238333,-0.9852773547172546,0.0838869959115982,-0.0840301662683487,9.734429359436035,0.6774494647979736,0.08648768067359924,0.10364817827939987
1781545728674076,737064428,0.17082946002483368,-0.005684439558535814,0.0034208321012556553,-0.985278308391571,0.09761972725391388,-0.06318085640668869,9.729375839233398,0.6763993501663208,0.003822695231065154,0.052973464131355286
1781545728675842,737081095,0.170823335647583,-0.005683050956577063,0.003433356760069728,-0.9852792620658875,0.09093937277793884,-0.08387278765439987,9.735952377319336,0.6172724366188049,0.05240998417139053,0.05508650839328766
1781545728704089,737097762,0.17081867158412933,-0.0056867594830691814,0.003429605858400464,-0.9852801561355591,0.10447889566421509,-0.09202653914690018,9.75426959991455,0.7215161323547363,-0.0012550221290439367,0.06488336622714996
1781545728705892,737114429,0.17081204056739807,-0.005681090988218784,0.003427730407565832,-0.9852813482284546,0.10391028225421906,-0.09533453732728958,9.74665641784668,0.7196464538574219,0.06456320732831955,0.04687764495611191
1781545728734080,737131096,0.17081697285175323,-0.005679307039827108,0.0034247490111738443,-0.985280454158783,0.1087702289223671,-0.08340789377689362,9.749238967895508,0.7230016589164734,0.036670982837677,0.11993786692619324
1781545728735536,737147763,0.17081047594547272,-0.0056706988252699375,0.003416938940063119,-0.9852817058563232,0.10871665179729462,-0.07918082177639008,9.72480297088623,0.7633032202720642,0.07754884660243988,0.04681360721588135
1781545728764888,737164430,0.1708182394504547,-0.00567326694726944,0.003406910225749016,-0.985280454158783,0.09272748231887817,-0.08436630666255951,9.730981826782227,0.7657492756843567,-0.0012037968263030052,0.14287403225898743
1781545728794348,737181097,0.1708260029554367,-0.005683206953108311,0.003411463461816311,-0.9852789640426636,0.1045040562748909,-0.07425994426012039,9.755556106567383,0.6582272052764893,-0.03402647376060486,0.14534567296504974
1781545728795607,737197764,0.17083345353603363,-0.005680772941559553,0.003400490852072835,-0.9852777719497681,0.09354285150766373,-0.08349728584289551,9.750679016113281,0.7779537439346313,0.03161247447133064,0.14042803645133972
1781545728824088,737214431,0.1708400696516037,-0.005672643892467022,0.0033971474040299654,-0.9852766394615173,0.09333556890487671,-0.10181816667318344,9.768001556396484,0.7328240871429443,0.07914963364601135,0.1343962401151657
1781545728826454,737231098,0.1708233505487442,-0.005675338674336672,0.0033923734445124865,-0.9852795600891113,0.09892147034406662,-0.09083566814661026,9.744664192199707,0.7291358709335327,0.0048087844625115395,-0.021220121532678604
1781545728854104,737247765,0.17081938683986664,-0.005677035544067621,0.003402957459911704,-0.9852800965309143,0.10550526529550552,-0.07177448272705078,9.750314712524414,0.626633882522583,0.029268911108374596,0.06382045149803162
1781545728855751,737264432,0.17082901298999786,-0.005672411527484655,0.003405208233743906,-0.9852784276008606,0.09374669939279556,-0.07271859794855118,9.732766151428223,0.6911138892173767,0.06192510202527046,0.15616701543331146
1781545728884088,737281099,0.17084696888923645,-0.00567526463419199,0.003406345145776868,-0.9852753281593323,0.09766601026058197,-0.08577891439199448,9.743059158325195,0.6900636553764343,0.009713615290820599,0.21930232644081116
1781545728885726,737297766,0.17085003852844238,-0.00567908538505435,0.0034020189195871353,-0.9852747917175293,0.09819192439317703,-0.09657547622919083,9.754530906677246,0.7253068089485168,-0.002753365319222212,0.10781025886535645
1781545728914317,737314433,0.17085444927215576,-0.005671175196766853,0.003407947486266494,-0.985274076461792,0.09096429497003555,-0.08041461557149887,9.744385719299316,0.6696888208389282,0.0886903777718544,0.12351084500551224
1781545728944089,737331100,0.1708562970161438,-0.005648366641253233,0.0034082834608852863,-0.9852738380432129,0.09884994477033615,-0.08249237388372421,9.747414588928223,0.7250635623931885,0.18307316303253174,0.10629910230636597
1781545728945857,737347767,0.17086103558540344,-0.005656486842781305,0.0034051737748086452,-0.9852730631828308,0.09741231054067612,-0.08319688588380814,9.729183197021484,0.7121419310569763,-0.03058156557381153,0.12588003277778625
1781545728974440,737364434,0.17085400223731995,-0.005662912968546152,0.003403761889785528,-0.9852742552757263,0.10271582752466202,-0.08444498479366302,9.736395835876465,0.7022681832313538,-0.01677631586790085,0.0450335256755352
1781545728975836,737381101,0.17084184288978577,-0.005657433997839689,0.003405635477975011,-0.9852764010429382,0.11012931168079376,-0.0924556776881218,9.74728775024414,0.6937903165817261,0.06794408708810806,0.00964958406984806
1781545729004093,737397768,0.17083711922168732,-0.005650135688483715,0.0034075123257935047,-0.9852772355079651,0.09858173131942749,-0.08013207465410233,9.743887901306152,0.6961340308189392,0.08007171005010605,0.0528838224709034
1781545729005961,737414435,0.17082981765270233,-0.005649013910442591,0.003406835487112403,-0.9852784872055054,0.08878649771213531,-0.09194071590900421,9.746198654174805,0.7060332894325256,0.03531351312994957,0.03517264127731323
1781545729034086,737431102,0.1708202362060547,-0.00564118567854166,0.003406033618375659,-0.9852802157402039,0.09324599802494049,-0.09164389222860336,9.727184295654297,0.7148568630218506,0.08055833727121353,0.0325857549905777
1781545729035849,737447769,0.17081302404403687,-0.005638037342578173,0.003398408880457282,-0.9852815270423889,0.09668271988630295,-0.09240204840898514,9.728507041931152,0.7555297613143921,0.04085865616798401,0.040448855608701706
1781545729064313,737464436,0.17081008851528168,-0.005645565688610077,0.0033901133574545383,-0.9852820038795471,0.10343464463949203,-0.09355000406503677,9.762502670288086,0.7478075623512268,-0.03242567554116249,0.07547422498464584
1781545729094047,737481103,0.17080949246883392,-0.005646619480103254,0.0033898840192705393,-0.9852821230888367,0.09301365911960602,-0.07312270253896713,9.74957275390625,0.7008466720581055,0.02091917209327221,0.08456672728061676
1781545729095561,737497770,0.1708197295665741,-0.005641744937747717,0.003388873767107725,-0.9852803945541382,0.09212309867143631,-0.08008558303117752,9.740533828735352,0.7132688164710999,0.05985047295689583,0.15807516872882843
1781545729124069,737514437,0.1708289533853531,-0.0056395092979073524,0.003395313397049904,-0.9852787852287292,0.10310577601194382,-0.08154823631048203,9.741150856018066,0.6598151326179504,0.050681132823228836,0.15862585604190826
1781545729125716,737531104,0.1708235889673233,-0.005644075106829405,0.003398377448320389,-0.9852797389030457,0.09804166853427887,-0.07105208933353424,9.742765426635742,0.674107015132904,0.0010821365285664797,0.05892841890454292
1781545729154160,737547771,0.1708240509033203,-0.005641884636133909,0.00340422079898417,-0.9852795004844666,0.10559109598398209,-0.08896531164646149,9.73802661895752,0.6634137630462646,0.049963973462581635,0.09104674309492111
1781545729156110,737564438,0.17081710696220398,-0.0056341253221035,0.0034093239810317755,-0.9852807521820068,0.10175382345914841,-0.09738727658987045,9.72036361694336,0.6746320128440857,0.08706395328044891,0.04595557972788811
1781545729184090,737581105,0.17081351578235626,-0.005637382157146931,0.0034055430442094803,-0.9852814078330994,0.09553844481706619,-0.08987723290920258,9.730490684509277,0.7221180200576782,0.0019017428858205676,0.06904542446136475
1781545729185720,737597772,0.17081619799137115,-0.005632875487208366,0.003405017079785466,-0.9852809309959412,0.0877101719379425,-0.07771454006433487,9.75584888458252,0.7095550298690796,0.05804477632045746,0.11395729333162308
1781545729214304,737614439,0.1708163470029831,-0.005629771389067173,0.0033887384925037622,-0.9852809906005859,0.09764476120471954,-0.08208826184272766,9.73737621307373,0.8143749833106995,0.030216583982110023,0.09009907394647598
1781545729244080,737631106,0.1708233803510666,-0.00563924852758646,0.003389503341168165,-0.9852796792984009,0.10116388648748398,-0.09637520462274551,9.734198570251465,0.6845057606697083,-0.035255879163742065,0.14443640410900116
1781545729245793,737647773,0.17083105444908142,-0.005637169815599918,0.003379744477570057,-0.9852784276008606,0.09521294385194778,-0.07886610180139542,9.735834121704102,0.7691813111305237,0.030754446983337402,0.1353054791688919
1781545729274385,737664440,0.17084380984306335,-0.0056440276093780994,0.0033869314938783646,-0.9852761626243591,0.08825349062681198,-0.08201674371957779,9.712611198425293,0.6441145539283752,-0.010078596882522106,0.1818181425333023
1781545729276829,737681107,0.17084884643554688,-0.005756532307714224,0.0035604634322226048,-0.985274076461792,0.11275418102741241,-0.08383345603942871,9.728643417358398,0.7705132961273193,0.03505738452076912,0.05495844781398773
1781545729304083,737697774,0.17084334790706635,-0.005750267766416073,0.003571102861315012,-0.9852750301361084,0.09211594611406326,-0.0822170078754425,9.728184700012207,0.6371991634368896,0.08401605486869812,0.05807039514183998
1781545729306252,737714441,0.1708323210477829,-0.005736564286053181,0.0035732353571802378,-0.985276997089386,0.09310296177864075,-0.08016784489154816,9.738348960876465,0.7034463882446289,0.12453534454107285,0.01971537247300148
1781545729334086,737731108,0.17083503305912018,-0.005733483470976353,0.0035774740390479565,-0.9852765202522278,0.10045219212770462,-0.08974132686853409,9.75871753692627,0.677129328250885,0.05465109646320343,0.1129584014415741
1781545729336105,737747775,0.1708429753780365,-0.0057411338202655315,0.0035693601239472628,-0.9852750897407532,0.09267741441726685,-0.07913073897361755,9.747507095336914,0.7484094500541687,-0.032694604247808456,0.15229950845241547
1781545729364318,737764442,0.17083249986171722,-0.005743145011365414,0.0035699624568223953,-0.9852768778800964,0.09125763177871704,-0.08889379352331161,9.736196517944336,0.695314347743988,0.01630888693034649,0.021687552332878113
1781545729394496,737781109,0.17084378004074097,-0.005738513078540564,0.0035724779590964317,-0.9852749109268188,0.09852451086044312,-0.0822921022772789,9.73319149017334,0.6909473538398743,0.06287277489900589,0.17091993987560272
1781545729395701,737797776,0.1708415150642395,-0.0057343849912285805,0.003561713732779026,-0.985275387763977,0.0846237912774086,-0.09101447463035583,9.731586456298828,0.7797594666481018,0.04427795857191086,0.07607612013816833
1781545729424396,737814443,0.17084936797618866,-0.005733747500926256,0.0035605651792138815,-0.9852740168571472,0.09285251051187515,-0.08720225095748901,9.752349853515625,0.710874080657959,0.03168930858373642,0.13777711987495422
1781545729426016,737831110,0.1708499640226364,-0.0057229408994317055,0.0035676381085067987,-0.985274076461792,0.09704038500785828,-0.08621162921190262,9.731203079223633,0.6668714284896851,0.11040995270013809,0.09527283906936646
1781545729454088,737847777,0.17085014283657074,-0.0057316129095852375,0.0035599793773144484,-0.9852738976478577,0.09134706109762192,-0.08362960815429688,9.702293395996094,0.7438119649887085,-0.038854461163282394,0.09456849098205566
1781545729455760,737864444,0.1708471029996872,-0.00572777958586812,0.0035674571990966797,-0.9852744936943054,0.10821960866451263,-0.09586738795042038,9.747682571411133,0.6558324098587036,0.06378202885389328,0.06946804374456406
1781545729484164,737881111,0.17084680497646332,-0.00572693208232522,0.0035591896157711744,-0.9852745532989502,0.09480176866054535,-0.08707348257303238,9.747612953186035,0.7591027617454529,0.024953173473477364,0.08967646956443787
1781545729486036,737897778,0.1708470731973648,-0.005723100155591965,0.003552015172317624,-0.9852745532989502,0.09951869398355484,-0.07560459524393082,9.742168426513672,0.7551712393760681,0.046455033123493195,0.09027835726737976
1781545729514405,737914445,0.17084762454032898,-0.00571518624201417,0.0035527634900063276,-0.9852744936943054,0.09682214260101318,-0.08471322059631348,9.746678352355957,0.7064046263694763,0.08335012942552567,0.09901230037212372
1781545729544084,737931112,0.1708381623029709,-0.005709083750844002,0.003546152962371707,-0.9852761626243591,0.09212664514780045,-0.08429836481809616,9.752328872680664,0.7537240982055664,0.06275751441717148,0.02989642508327961
1781545729545836,737947779,0.1708378940820694,-0.005707818549126387,0.003550921333953738,-0.9852762222290039,0.10600593686103821,-0.08200958371162415,9.738259315490723,0.6711231470108032,0.04316380247473717,0.08761464804410934
1781545729574073,737964446,0.1708410680294037,-0.005715511739253998,0.0035520819947123528,-0.9852756261825562,0.09157594293355942,-0.09508777409791946,9.747543334960938,0.6852101683616638,-0.02189886011183262,0.11067888885736465
1781545729575757,737981113,0.17084650695323944,-0.005713597871363163,0.0035413296427577734,-0.9852747321128845,0.10146057605743408,-0.08501717448234558,9.739356994628906,0.7773005366325378,0.029128044843673706,0.1251116245985031
1781545729604364,737997780,0.17085908353328705,-0.0057034967467188835,0.0035446523688733578,-0.9852725863456726,0.09414723515510559,-0.07563678175210953,9.739925384521484,0.6918181777000427,0.10088201612234116,0.1823047697544098
1781545729605938,738014447,0.17086966335773468,-0.0056982156820595264,0.003540561068803072,-0.9852707386016846,0.09656117111444473,-0.08891882002353668,9.734515190124512,0.7363842725753784,0.05950470268726349,0.17025400698184967
1781545729634430,738031114,0.17085693776607513,-0.005697289016097784,0.0035387305542826653,-0.9852730631828308,0.0817592516541481,-0.08084732294082642,9.752163887023926,0.7151130437850952,0.03346940129995346,-0.0007555746124126017
1781545729636238,738047781,0.17086338996887207,-0.005685885436832905,0.003539562225341797,-0.9852719902992249,0.09676872938871384,-0.08996661007404327,9.735812187194824,0.7101824879646301,0.1069394201040268,0.13798201084136963
1781545729664323,738064448,0.1708616018295288,-0.00567976851016283,0.0035417689941823483,-0.9852723479270935,0.10936399549245834,-0.0777503252029419,9.745111465454102,0.694187343120575,0.07301539927721024,0.07952102273702621
1781545729694428,738081115,0.1708536595106125,-0.005676740780472755,0.0035293938126415014,-0.9852737784385681,0.10345252603292465,-0.08218124508857727,9.7300443649292,0.7891719937324524,0.03521105274558067,0.031663697212934494
1781545729695700,738097782,0.17086811363697052,-0.00567998830229044,0.003526546759530902,-0.9852712750434875,0.11114136874675751,-0.08815708756446838,9.731489181518555,0.7180584073066711,0.0031311523634940386,0.19503428041934967
1781545729724424,738114449,0.17087484896183014,-0.005680043715983629,0.0035349600948393345,-0.985270082950592,0.09643958508968353,-0.09198363125324249,9.741684913635254,0.6451263427734375,0.038246165961027145,0.14190076291561127
1781545729725737,738131116,0.17088596522808075,-0.005663629621267319,0.003528910456225276,-0.9852682948112488,0.10183250159025192,-0.07998545467853546,9.754570007324219,0.7625796794891357,0.13275061547756195,0.16863402724266052
1781545729754427,738147783,0.17089465260505676,-0.005662177223712206,0.00352456234395504,-0.9852668046951294,0.10381357371807098,-0.08533189445734024,9.740001678466797,0.7335668802261353,0.033482201397418976,0.1518128663301468
1781545729755715,738164450,0.1708935648202896,-0.005665884353220463,0.0035197187680751085,-0.9852669835090637,0.11165285855531693,-0.10026969015598297,9.741765975952148,0.7304677963256836,-0.0018313080072402954,0.08837021887302399
1781545729784426,738181117,0.17090100049972534,-0.005674480460584164,0.003518641460686922,-0.9852656126022339,0.08867920935153961,-0.06588088721036911,9.720710754394531,0.6995020508766174,-0.030799275264143944,0.1489826887845993
1781545729785720,738197784,0.17088685929775238,-0.005675062071532011,0.0035114441998302937,-0.9852680563926697,0.10872385650873184,-0.08638686686754227,9.737443923950195,0.7497285008430481,0.016936397179961205,0.0029774762224406004
1781545729814653,738214451,0.1708919256925583,-0.005682030227035284,0.0035127538722008467,-0.9852671027183533,0.08956968784332275,-0.08493492007255554,9.718143463134766,0.685210108757019,-0.01684034802019596,0.13014452159404755
1781545729845376,738231118,0.1709052473306656,-0.005688290111720562,0.0034962352365255356,-0.9852648973464966,0.10452201217412949,-0.08278919756412506,9.72870922088623,0.8070497512817383,-0.03323247656226158,0.18248407542705536
1781545729846736,738247785,0.17090898752212524,-0.005685091949999332,0.003477921476587653,-0.9852643609046936,0.09688033163547516,-0.07594920694828033,9.750184059143066,0.8300883173942566,0.028974367305636406,0.12360047549009323
1781545729874087,738264452,0.17091205716133118,-0.005678799003362656,0.003478189231827855,-0.9852638840675354,0.1059737503528595,-0.08131580054759979,9.741570472717285,0.7075956463813782,0.07187563925981522,0.11615999788045883
1781545729876051,738281119,0.1709192544221878,-0.00567807350307703,0.0034731468185782433,-0.9852626323699951,0.1021437793970108,-0.08567160367965698,9.74256420135498,0.7373191714286804,0.027706539258360863,0.1478428989648819
1781545729904084,738297786,0.170918270945549,-0.005677930545061827,0.003465537680312991,-0.9852628111839294,0.09912888705730438,-0.06842715293169022,9.73077392578125,0.7536856532096863,0.021111266687512398,0.07812513411045074
1781545729906049,738314453,0.17092715203762054,-0.005678795278072357,0.0034685516729950905,-0.9852612614631653,0.10357053577899933,-0.09918968379497528,9.736618041992188,0.6808816194534302,0.026425903663039207,0.15395154058933258
1781545729934078,738331120,0.17094436287879944,-0.005672365427017212,0.0034566172398626804,-0.9852583408355713,0.10362417995929718,-0.08997737616300583,9.720189094543457,0.7909265756607056,0.05807039514183998,0.21151608228683472
1781545729935841,738347787,0.17093463242053986,-0.005668731406331062,0.0034536549355834723,-0.9852600693702698,0.1072540357708931,-0.0872451514005661,9.748647689819336,0.7259727120399475,0.05046342313289642,0.0276937298476696
1781545729964322,738364454,0.17093387246131897,-0.005679109133780003,0.0034512109123170376,-0.9852601289749146,0.09305282682180405,-0.08143738657236099,9.74670696258545,0.7063790559768677,-0.04415629804134369,0.08942034095525742
1781545729994092,738381121,0.17093782126903534,-0.005669733975082636,0.0034484427887946367,-0.9852595329284668,0.10397464781999588,-0.0838012620806694,9.74032974243164,0.7317996025085449,0.0892026275396347,0.11594229191541672
1781545729995853,738397788,0.17094308137893677,-0.00566908810287714,0.003448221832513809,-0.9852586388587952,0.11722807586193085,-0.09555625915527344,9.749234199523926,0.7044324278831482,0.03298275172710419,0.13127148151397705
1781545730024087,738414455,0.1709514856338501,-0.005662326700985432,0.003449230920523405,-0.9852572679519653,0.09685799479484558,-0.08391212671995163,9.751483917236328,0.7034207582473755,0.07579437643289566,0.15544985234737396
1781545730025816,738431122,0.17096112668514252,-0.005652250722050667,0.003454669611528516,-0.9852555394172668,0.09158667176961899,-0.08853616565465927,9.744545936584473,0.6772701740264893,0.10345609486103058,0.15537303686141968
1781545730054098,738447789,0.17095880210399628,-0.005662050098180771,0.0034543429501354694,-0.9852558374404907,0.09991922974586487,-0.07453173398971558,9.734664916992188,0.6925482153892517,-0.037663474678993225,0.07680608332157135
1781545730055936,738464456,0.17095273733139038,-0.005660302471369505,0.0034600021317601204,-0.9852568507194519,0.09672210365533829,-0.08137302100658417,9.756813049316406,0.6654115319252014,0.04777408763766289,0.050412196666002274
1781545730084108,738481123,0.17095403373241425,-0.005655183922499418,0.0034587732516229153,-0.9852566123008728,0.10174676775932312,-0.08845388889312744,9.751164436340332,0.7163423895835876,0.06225806847214699,0.10126621276140213
1781545730085804,738497790,0.17095233500003815,-0.005660152994096279,0.0034560884814709425,-0.9852570295333862,0.11523977667093277,-0.07620181888341904,9.738387107849121,0.7142677903175354,-0.00765819801017642,0.07625541090965271
1781545730114650,738514457,0.17095328867435455,-0.005658935755491257,0.0034587832633405924,-0.9852569103240967,0.09824199229478836,-0.08216336369514465,9.731128692626953,0.6851845383644104,0.04047446697950363,0.09784691780805588
1781545730144100,738531124,0.17095743119716644,-0.005649939179420471,0.003451409749686718,-0.9852561950683594,0.0947122722864151,-0.07994253933429718,9.74986743927002,0.7624837756156921,0.08126270025968552,0.11627525836229324
1781545730146318,738547791,0.1709546148777008,-0.005645422730594873,0.0034527932293713093,-0.9852566719055176,0.10672833025455475,-0.08245661109685898,9.740229606628418,0.6980164051055908,0.061323199421167374,0.08142916858196259
1781545730174110,738564458,0.17095567286014557,-0.005640258546918631,0.003454175777733326,-0.985256552696228,0.10464349389076233,-0.09085710346698761,9.765894889831543,0.6986567974090576,0.06571578234434128,0.0938897505402565
1781545730176151,738581125,0.17095234990119934,-0.005638517905026674,0.0034543483052402735,-0.9852571487426758,0.09014187753200531,-0.082063227891922,9.744449615478516,0.7027291655540466,0.041140396147966385,0.07346361875534058
1781545730204107,738597792,0.17095626890659332,-0.005644681863486767,0.0034656759817153215,-0.9852563738822937,0.10459313541650772,-0.08591838926076889,9.752285957336426,0.6181432008743286,0.0005442698020488024,0.11750465631484985
1781545730206233,738614459,0.17095546424388885,-0.005642294883728027,0.003468411276116967,-0.9852564930915833,0.0974658727645874,-0.09452275186777115,9.761329650878906,0.6862345933914185,0.04852965846657753,0.08625716716051102
1781545730234090,738631126,0.170951709151268,-0.005639500916004181,0.0034659632947295904,-0.9852571487426758,0.10225442796945572,-0.09457281231880188,9.756176948547363,0.7218235731124878,0.04525124281644821,0.06864843517541885
1781545730236067,738647793,0.1709490269422531,-0.0056244502775371075,0.0034808542113751173,-0.9852576851844788,0.09919695556163788,-0.0850779339671135,9.741076469421387,0.6187067627906799,0.14864970743656158,0.07126092910766602
1781545730264523,738664460,0.17093782126903534,-0.005626278463751078,0.003481278195977211,-0.9852596521377563,0.09847086668014526,-0.09095367789268494,9.735848426818848,0.6966205835342407,0.017589520663022995,0.015950307250022888
1781545730294096,738681127,0.1709413081407547,-0.005630522966384888,0.0034792893566191196,-0.9852590560913086,0.09195870906114578,-0.0888901948928833,9.771026611328125,0.7106307744979858,-0.002100241370499134,0.11872126907110214
1781545730296071,738697794,0.17094025015830994,-0.005631762556731701,0.0034842367749661207,-0.9852591156959534,0.09081778675317764,-0.083100326359272,9.749159812927246,0.6669866442680359,0.026553964242339134,0.08854950219392776
1781545730324088,738714461,0.1709633320569992,-0.005623525474220514,0.0034839303698390722,-0.9852551817893982,0.10379941761493683,-0.0781329795718193,9.755642890930176,0.7144725918769836,0.08387517929077148,0.24844957888126373
1781545730326097,738731128,0.1709577441215515,-0.005621148273348808,0.003487878944724798,-0.9852561354637146,0.10130675137042999,-0.08485625684261322,9.743995666503906,0.6778208613395691,0.050015199929475784,0.0591077096760273
1781545730354087,738747795,0.1709570288658142,-0.005607149563729763,0.003496437566354871,-0.9852563142776489,0.09585657715797424,-0.08163410425186157,9.74273681640625,0.660442590713501,0.13399922847747803,0.09157180041074753
1781545730356111,738764462,0.17096547782421112,-0.005612894427031279,0.0035017412155866623,-0.9852548241615295,0.10143911838531494,-0.06967166811227798,9.729819297790527,0.6595462560653687,-0.003790679620578885,0.14667753875255585
1781545730384092,738781129,0.17096620798110962,-0.005613615270704031,0.003497787518426776,-0.98525470495224,0.09102877974510193,-0.10334166139364243,9.745704650878906,0.7280473709106445,0.01956169866025448,0.09921718388795853
1781545730385815,738797796,0.1709543615579605,-0.0056123207323253155,0.0034870903473347425,-0.9852568507194519,0.0952916070818901,-0.08663005381822586,9.744561195373535,0.7755588889122009,0.02568313293159008,0.013888485729694366
1781545730414646,738814463,0.17096799612045288,-0.0056070624850690365,0.0034882239997386932,-0.9852544665336609,0.09677574783563614,-0.07897338271141052,9.727766990661621,0.7010515928268433,0.06570297479629517,0.18554478883743286
1781545730444097,738831130,0.1709761917591095,-0.005608368664979935,0.0034867427311837673,-0.9852530360221863,0.08248893916606903,-0.07811865955591202,9.756829261779785,0.7107076048851013,0.018293870612978935,0.14521759748458862
1781545730446168,738847797,0.17097210884094238,-0.005612276494503021,0.003486544592306018,-0.9852537512779236,0.10574481636285782,-0.07734978944063187,9.752132415771484,0.6986311674118042,0.0025548667181283236,0.0627831295132637
1781545730474782,738864464,0.1709664762020111,-0.0056063225492835045,0.003488234942778945,-0.9852547645568848,0.09181196987628937,-0.08048969507217407,9.742371559143066,0.6973249316215515,0.07161951065063477,0.05290942266583443
1781545730476228,738881131,0.17096328735351562,-0.005607274826616049,0.0034927090164273977,-0.9852553009986877,0.0962357372045517,-0.07978518307209015,9.75118350982666,0.6704315543174744,0.02805231139063835,0.0722726359963417
1781545730504400,738897798,0.1709662228822708,-0.005614061374217272,0.0034977963659912348,-0.98525470495224,0.0988570973277092,-0.0764700397849083,9.750983238220215,0.6595973968505859,-0.010911010205745697,0.11117831617593765
1781545730506165,738914465,0.17097076773643494,-0.005610662046819925,0.003502154489979148,-0.9852539300918579,0.10826967656612396,-0.10291609168052673,9.723793029785156,0.6766170859336853,0.05716114863753319,0.12599526345729828
1781545730534410,738931132,0.17097344994544983,-0.005609095096588135,0.0035004056990146637,-0.9852534532546997,0.09700830280780792,-0.09078557789325714,9.750843048095703,0.7156636118888855,0.03769548609852791,0.1077590361237526
1781545730535778,738947799,0.17097873985767365,-0.005617630667984486,0.00350430840626359,-0.9852524399757385,0.098438560962677,-0.0887543112039566,9.757452964782715,0.6657188534736633,-0.02425522543489933,0.1294914036989212
1781545730564645,738964466,0.17097483575344086,-0.005624042358249426,0.0035087440628558397,-0.9852530360221863,0.09594248980283737,-0.08874358236789703,9.720821380615234,0.6642333269119263,-0.008926025591790676,0.06497301906347275
1781545730594105,738981133,0.1709720939397812,-0.005621200893074274,0.0035171504132449627,-0.9852535128593445,0.09805609285831451,-0.0716385692358017,9.745793342590332,0.6482765674591064,0.05841616168618202,0.07712623476982117
1781545730596078,738997800,0.17096813023090363,-0.005613426212221384,0.0035105093847960234,-0.9852544069290161,0.08778158575296402,-0.08877219259738922,9.736163139343262,0.7559651732444763,0.07412955164909363,0.06640733033418655
1781545730624097,739014467,0.17097002267837524,-0.005603202618658543,0.00350144668482244,-0.985254168510437,0.0885935053229332,-0.09121114015579224,9.757011413574219,0.7753925323486328,0.0876658707857132,0.11489217728376389
1781545730626087,739031134,0.17095549404621124,-0.005601170938462019,0.0034981267526745796,-0.9852566123008728,0.09524870663881302,-0.07421702891588211,9.740394592285156,0.7262160778045654,0.03951399400830269,-0.007786260452121496
1781545730654084,739047801,0.1709517389535904,-0.005603575613349676,0.0035056041087955236,-0.9852572679519653,0.10295531153678894,-0.08588263392448425,9.74228286743164,0.6483278274536133,0.021815616637468338,0.06773918122053146
1781545730655810,739064468,0.17096547782421112,-0.0056016528978943825,0.0035059319343417883,-0.9852548837661743,0.09357128292322159,-0.08819643408060074,9.761301040649414,0.7024218440055847,0.04222893714904785,0.18478922545909882
1781545730684523,739081135,0.17097197473049164,-0.005599662195891142,0.0034956911113113165,-0.9852538108825684,0.09005261957645416,-0.10107789933681488,9.754090309143066,0.7738173007965088,0.030485516414046288,0.13636840879917145
1781545730685755,739097802,0.17097121477127075,-0.0055885533802211285,0.0035004483070224524,-0.9852539896965027,0.08838246762752533,-0.07738194614648819,9.737964630126953,0.6827641725540161,0.11008977890014648,0.08653891086578369
1781545730714648,739114469,0.17096565663814545,-0.005580016877502203,0.003492981195449829,-0.9852550625801086,0.09469081461429596,-0.06494750082492828,9.725194931030273,0.7623555660247803,0.07843248546123505,0.05143669992685318
1781545730744115,739131136,0.1709667593240738,-0.005564696155488491,0.003488607471808791,-0.9852549433708191,0.09266668558120728,-0.08143381774425507,9.743233680725098,0.7495748400688171,0.1278650164604187,0.09704011678695679
1781545730745707,739147803,0.17097005248069763,-0.0055628009140491486,0.003484708722680807,-0.9852543473243713,0.09946874529123306,-0.07559742778539658,9.74825382232666,0.7306214570999146,0.037388138473033905,0.11955367028713226
1781545730774103,739164470,0.17098067700862885,-0.005557741969823837,0.0034859608858823776,-0.9852524995803833,0.10323794931173325,-0.09390047192573547,9.727487564086914,0.6997965574264526,0.06467846035957336,0.16257020831108093
1781545730775902,739181137,0.17096756398677826,-0.005554727744311094,0.0034907772205770016,-0.9852548837661743,0.09107169508934021,-0.0795348584651947,9.750344276428223,0.6724421381950378,0.05568841099739075,0.001530358800664544
1781545730804096,739197804,0.17097121477127075,-0.005562391597777605,0.0034829264041036367,-0.9852541089057922,0.09235198050737381,-0.08505651354789734,9.746255874633789,0.7463092803955078,-0.03206710144877434,0.12360049039125443
1781545730805957,739214471,0.17096661031246185,-0.0055647436529397964,0.0034801720175892115,-0.9852550029754639,0.09830642491579056,-0.07900913804769516,9.730122566223145,0.717674195766449,0.010200257413089275,0.06261664628982544
1781545730834143,739231138,0.17097318172454834,-0.005548115819692612,0.003474963130429387,-0.9852539300918579,0.09688302874565125,-0.08938729763031006,9.747410774230957,0.7569385170936584,0.1356000304222107,0.1328466683626175
1781545730835933,739247805,0.1709718108177185,-0.005540470127016306,0.0034710869658738375,-0.9852542281150818,0.09104300290346146,-0.08160906285047531,9.725031852722168,0.7370246052742004,0.07656276971101761,0.0814547911286354
1781545730864314,739264472,0.1709768921136856,-0.0055540683679282665,0.0034705549478530884,-0.9852532744407654,0.09288125485181808,-0.08145169913768768,9.73167896270752,0.6897178888320923,-0.06360913813114166,0.12585440278053284
1781545730894088,739281139,0.1709766387939453,-0.0055573261342942715,0.003470874857157469,-0.9852533340454102,0.10403186827898026,-0.0843806117773056,9.731525421142578,0.6959930658340454,0.007587761618196964,0.09415867924690247
1781545730896090,739297806,0.1709894984960556,-0.005556608084589243,0.003471549367532134,-0.9852510690689087,0.10512618720531464,-0.07794343680143356,9.755403518676758,0.6986056566238403,0.034532323479652405,0.18025578558444977
1781545730924093,739314473,0.17099113762378693,-0.005559608805924654,0.0034784411545842886,-0.9852507710456848,0.10966439545154572,-0.06043790280818939,9.755425453186035,0.6517598628997803,0.017026040703058243,0.10068992525339127
1781545730926127,739331140,0.17098602652549744,-0.005560943391174078,0.0034804714377969503,-0.9852516651153564,0.09458348155021667,-0.06516565382480621,9.75777530670166,0.6864138841629028,0.02277609147131443,0.05855703353881836
1781545730954182,739347807,0.1709831804037094,-0.005562191363424063,0.0034823883324861526,-0.9852521419525146,0.09410426020622253,-0.07471412420272827,9.748519897460938,0.6872335076332092,0.023249929770827293,0.06712447851896286
1781545730956142,739364474,0.1709827482700348,-0.005558240693062544,0.0034747777972370386,-0.9852522015571594,0.09990492463111877,-0.09533096104860306,9.730563163757324,0.7579373717308044,0.04714657738804817,0.0894075259566307
1781545730984106,739381141,0.17098285257816315,-0.005560385528951883,0.003482984146103263,-0.9852522015571594,0.10130680352449417,-0.08528181165456772,9.74888801574707,0.6437431573867798,0.024415303021669388,0.09673275798559189
1781545730986213,739397808,0.1709808111190796,-0.005560240242630243,0.0034834081307053566,-0.9852525591850281,0.09493757784366608,-0.09140070527791977,9.73522663116455,0.6990281343460083,0.030882511287927628,0.0768573060631752
1781545731042465,739414475,0.17099162936210632,-0.005557430442422628,0.003491822397336364,-0.98525071144104,0.09960094839334488,-0.07158136367797852,9.74738883972168,0.6484943628311157,0.05791672319173813,0.16473448276519775
1781545731049109,739431142,0.17099814116954803,-0.00556888896971941,0.0034886023495346308,-0.985249400138855,0.09665760397911072,-0.0720820277929306,9.731314659118652,0.7103233933448792,-0.05223710089921951,0.13452431559562683
1781545731050074,739447809,0.17100247740745544,-0.005571235436946154,0.0034846642520278692,-0.9852487444877625,0.09028850495815277,-0.08198454976081848,9.727802276611328,0.725959837436676,0.008663495071232319,0.12532933056354523
1781545731074463,739464476,0.17099352180957794,-0.005574261769652367,0.0034841906744986773,-0.9852502942085266,0.1025763526558876,-0.08795681595802307,9.753290176391602,0.7012308835983276,0.008548237383365631,0.02989642135798931
1781545731076051,739481143,0.17099696397781372,-0.0055748410522937775,0.0034758213441818953,-0.9852496981620789,0.0954132080078125,-0.08051472902297974,9.736428260803223,0.7579886317253113,0.015399635769426823,0.12342118471860886
1781545731105192,739497810,0.1709848940372467,-0.0055786860175430775,0.0034898912999778986,-0.9852517247200012,0.09970466047525406,-0.08655494451522827,9.725907325744629,0.6016102433204651,0.020189210772514343,0.008625076152384281
1781545731107452,739514477,0.17097581923007965,-0.0055776797235012054,0.003490796312689781,-0.9852533340454102,0.09084636718034744,-0.09215529263019562,9.73807430267334,0.6966460943222046,0.03751619532704353,0.028013886883854866
1781545731134291,739531144,0.17097660899162292,-0.005573556292802095,0.0034827180206775665,-0.9852532744407654,0.09315294027328491,-0.07431360334157944,9.78158187866211,0.7614975571632385,0.04772286117076874,0.0996013879776001
1781545731135938,739547811,0.17097926139831543,-0.005567976273596287,0.0034836838021874428,-0.9852527379989624,0.09614633023738861,-0.08728091418743134,9.724258422851562,0.7019479274749756,0.06821302324533463,0.11121673882007599
1781545731165077,739564478,0.17097502946853638,-0.005567470099776983,0.0034882703330367804,-0.9852534532546997,0.09271317720413208,-0.07233951985836029,9.744088172912598,0.6711743474006653,0.03827177360653877,0.06455040723085403
1781545731195645,739581145,0.17096412181854248,-0.005566291511058807,0.0034944042563438416,-0.9852553606033325,0.10526923835277557,-0.09922544658184052,9.751745223999023,0.6613263487815857,0.04485423490405083,0.023557281121611595
1781545731196984,739597812,0.17095579206943512,-0.005563873331993818,0.0034946349915117025,-0.9852567911148071,0.10231529176235199,-0.07773244380950928,9.745426177978516,0.702857255935669,0.046262938529253006,0.03410971164703369
1781545731224611,739614479,0.17096233367919922,-0.005569507833570242,0.0034908221568912268,-0.9852555990219116,0.09749814122915268,-0.07787906378507614,9.728507041931152,0.7212087512016296,-0.013421053998172283,0.13182216882705688
1781545731226545,739631146,0.17094899713993073,-0.005561024881899357,0.0034788192715495825,-0.985258162021637,0.09888213127851486,-0.08862914890050888,9.738945960998535,0.7925785183906555,0.07314345985651016,0.0019145492697134614
1781545731254283,739647813,0.170950248837471,-0.005554053466767073,0.0034793284721672535,-0.9852578639984131,0.09169761836528778,-0.09196572750806808,9.756028175354004,0.70650714635849,0.07722869515419006,0.09604121744632721
1781545731255791,739664480,0.17094376683235168,-0.005546377971768379,0.003485957160592079,-0.9852589964866638,0.10020890086889267,-0.0798531323671341,9.752084732055664,0.6656676530838013,0.08942033350467682,0.043061353266239166
1781545731285206,739681147,0.17091087996959686,-0.0056598675437271595,0.0035132034681737423,-0.9852639436721802,0.09144356101751328,-0.08901896327733994,9.740545272827148,0.6803565621376038,0.05960715562105179,0.06809777021408081
1781545731286474,739697814,0.17090772092342377,-0.005659410730004311,0.003522709710523486,-0.9852644205093384,0.10815881192684174,-0.08478472381830215,9.75111198425293,0.638236403465271,0.04457249492406845,0.07474425435066223
1781545731315133,739714481,0.17089951038360596,-0.0056632221676409245,0.0035261574666947126,-0.985265851020813,0.09273821115493774,-0.09002744406461716,9.721733093261719,0.6741582751274109,0.008625076152384281,0.048606500029563904
1781545731345704,739731148,0.170904278755188,-0.005663431249558926,0.003518270095810294,-0.9852650761604309,0.09751959890127182,-0.08414458483457565,9.762770652770996,0.7554657459259033,0.019433634355664253,0.12219177931547165
1781545731346562,739747815,0.17089541256427765,-0.005663731601089239,0.0035229267086833715,-0.9852666258811951,0.1049831435084343,-0.07846198976039886,9.737744331359863,0.6698552966117859,0.033981647342443466,0.028129147365689278
1781545731374242,739764482,0.1708918809890747,-0.005658337380737066,0.003527036402374506,-0.9852672815322876,0.09740164130926132,-0.0828714370727539,9.755476951599121,0.6805101633071899,0.07179879397153854,0.06525475531816483
1781545731376494,739781149,0.17089222371578217,-0.005655274726450443,0.003530982183292508,-0.9852672219276428,0.09567785263061523,-0.08595772087574005,9.734421730041504,0.6789606213569641,0.055675603449344635,0.09213528037071228
1781545731404199,739797816,0.17089127004146576,-0.005654989276081324,0.0035397678148001432,-0.9852673411369324,0.09403637051582336,-0.06772621721029282,9.736274719238281,0.6429107189178467,0.04257471114397049,0.08285067230463028
1781545731406434,739814483,0.17089039087295532,-0.005661288741976023,0.0035430535208433867,-0.9852674603462219,0.10303768515586853,-0.08107977360486984,9.745976448059082,0.6724549531936646,-0.00851622223854065,0.08565527200698853
1781545731434071,739831150,0.17089153826236725,-0.005671571008861065,0.003540854435414076,-0.9852672219276428,0.10670696943998337,-0.08051115274429321,9.740900993347168,0.7049959897994995,-0.041966408491134644,0.10030572861433029
1781545731436182,739847817,0.17089690268039703,-0.005672904662787914,0.0035409480333328247,-0.9852662682533264,0.10827682912349701,-0.07309052348136902,9.740959167480469,0.7000910639762878,0.02117529697716236,0.13015732169151306
1781545731464308,739864484,0.17088879644870758,-0.00567210465669632,0.0035339202731847763,-0.985267698764801,0.09488747268915176,-0.08349014073610306,9.730899810791016,0.7503688335418701,0.02778337337076664,0.033533427864313126
1781545731494413,739881151,0.1708996742963791,-0.005670999176800251,0.003533522831276059,-0.9852657914161682,0.09523456543684006,-0.0711665078997612,9.740811347961426,0.706366240978241,0.03701674938201904,0.17166270315647125
1781545731496007,739897818,0.17090409994125366,-0.005669108591973782,0.003530133282765746,-0.9852650165557861,0.092791847884655,-0.0670824944972992,9.750568389892578,0.7275863289833069,0.038937702775001526,0.12800586223602295
1781545731525089,739914485,0.17090867459774017,-0.005665221251547337,0.0035244717728346586,-0.985264241695404,0.08900465071201324,-0.08552857488393784,9.754745483398438,0.7451182007789612,0.04984872043132782,0.12630261480808258
1781545731525951,739931152,0.17090658843517303,-0.00566335953772068,0.0035229946952313185,-0.9852645993232727,0.10897418856620789,-0.07677043974399567,9.742368698120117,0.714101254940033,0.041242845356464386,0.08244086802005768
1781545731554419,739947819,0.17090155184268951,-0.005664253607392311,0.0035184475127607584,-0.9852656126022339,0.10332378000020981,-0.08787814527750015,9.745529174804688,0.7316331267356873,0.019100667908787727,0.05769899860024452
1781545731555897,739964486,0.17090295255184174,-0.005664900876581669,0.0035097645595669746,-0.9852653741836548,0.10018745064735413,-0.07434577494859695,9.730606079101562,0.7601273059844971,0.0157069880515337,0.102252297103405
1781545731584446,739981153,0.170900359749794,-0.005658327601850033,0.0035198398400098085,-0.9852657914161682,0.10311278700828552,-0.08487770706415176,9.755843162536621,0.6414765119552612,0.08676942437887192,0.07717747986316681
1781545731585908,739997820,0.1709006428718567,-0.005661834497004747,0.0035122327972203493,-0.9852657318115234,0.09494830667972565,-0.09365729242563248,9.753279685974121,0.7494340538978577,-0.002253917744383216,0.08557843416929245
1781545731614701,740014487,0.1709008812904358,-0.00566957239061594,0.0035142807755619287,-0.9852657318115234,0.10284814238548279,-0.07813655585050583,9.748933792114258,0.6790759563446045,-0.019670553505420685,0.0974627286195755
1781545731644154,740031154,0.1708914339542389,-0.005673018284142017,0.0035144451539963484,-0.9852672815322876,0.0801284983754158,-0.09778065979480743,9.746198654174805,0.6965053677558899,0.007536537013947964,0.023096254095435143
1781545731646123,740047821,0.1708889752626419,-0.005664989352226257,0.00351084116846323,-0.9852678179740906,0.08277139067649841,-0.08858621120452881,9.740596771240234,0.735859215259552,0.08059675991535187,0.07678046822547913
1781545731674141,740064488,0.17089571058750153,-0.005656298249959946,0.003501258324831724,-0.9852667450904846,0.09414365887641907,-0.078969806432724,9.739117622375488,0.7773774266242981,0.07781779021024704,0.13562564551830292
1781545731676214,740081155,0.17089669406414032,-0.0056573874317109585,0.003505185479298234,-0.9852665662765503,0.10782613605260849,-0.08901538699865341,9.734240531921387,0.6741582751274109,0.027616892009973526,0.10161197930574417
1781545731704087,740097822,0.17089171707630157,-0.005656438414007425,0.0035007877741008997,-0.9852673411369324,0.10068096220493317,-0.089530348777771,9.744091987609863,0.7327088713645935,0.031778957694768906,0.06213000416755676
