host_t_us,sensor_t_us,qw,qx,qy,qz,ax,ay,az,gx,gy,gz
1781545723011765,676345888,0.17039364576339722,-0.013704287819564342,-0.060452431440353394,0.9834255576133728,-0.00018899235874414444,-1.3733999729156494,9.742687225341797,20.56451416015625,9.969029426574707,-11.502753257751465
1781545723013518,676362555,0.1725940704345703,-0.01615077815949917,-0.057791054248809814,0.9831646084785461,0.34464502334594727,-1.7151566743850708,10.173211097717285,11.819777488708496,21.478778839111328,-14.993233680725098
1781545723042928,676379222,0.1749274879693985,-0.016659894958138466,-0.054249510169029236,0.9829455018043518,1.0909751653671265,-1.3910714387893677,12.027835845947266,20.103008270263672,9.476129531860352,-16.51279640197754
1781545723074615,676395889,0.17541353404521942,-0.013679653406143188,-0.04740966856479645,0.9832585453987122,0.1658080816268921,-1.4404313564300537,11.416752815246582,46.57646560668945,-10.881401062011719,-4.319552898406982
1781545723075036,676412556,0.1763337254524231,-0.012317684479057789,-0.03978266194462776,0.9834501147270203,0.37144291400909424,-0.9626292586326599,10.549483299255371,49.949134826660156,1.1598238945007324,-6.800628662109375
1781545723101759,676429223,0.17815153300762177,-0.010519745759665966,-0.032654136419296265,0.9834058880805969,0.30020466446876526,-0.7724453806877136,9.552555084228516,47.11849594116211,-2.126217842102051,-13.319880485534668
1781545723103015,676445890,0.18074074387550354,-0.009036793373525143,-0.0267831701785326,0.9831256866455078,0.15328264236450195,-0.53960120677948,9.149333000183105,38.23262405395508,-1.346609115600586,-18.84933853149414
1781545723132099,676462557,0.1834448128938675,-0.008350741118192673,-0.0224111657589674,0.9827402830123901,-0.1486029177904129,-0.3347630202770233,8.951325416564941,27.096712112426758,2.203693389892578,-19.705120086669922
1781545723133777,676479224,0.18620698153972626,-0.009287044405937195,-0.019686268642544746,0.9822704792022705,-0.21399232745170593,-0.12960167229175568,8.980079650878906,13.91061782836914,11.098926544189453,-20.04731559753418
1781545723163708,676495891,0.1891009360551834,-0.011531658470630646,-0.01867556758224964,0.9817134737968445,-0.2695947289466858,-0.01011249702423811,9.070441246032715,0.6532087922096252,17.760360717773438,-20.98307991027832
1781545723165209,676512558,0.19244125485420227,-0.01572098396718502,-0.019458360970020294,0.9809905886650085,-0.5738294124603271,-0.11119706928730011,9.470595359802246,-13.968897819519043,28.62265396118164,-24.107934951782227
1781545723193005,676529225,0.19607894122600555,-0.019396185874938965,-0.020398637279868126,0.9801850318908691,-0.11414365470409393,-0.18482209742069244,10.20632266998291,-14.331226348876953,24.9913330078125,-26.30733871459961
1781545723222030,676545892,0.20037946105003357,-0.021563341841101646,-0.02155289612710476,0.9792450070381165,-0.3582402169704437,-0.4903174936771393,10.574586868286133,-13.67357063293457,14.650386810302734,-31.196069717407227
1781545723223154,676562559,0.2053610384464264,-0.023118847981095314,-0.022623494267463684,0.9781526923179626,-0.24430225789546967,-0.5567911863327026,10.81215763092041,-12.19011116027832,10.769027709960938,-36.06866455078125
1781545723251622,676579226,0.21043632924556732,-0.02383933588862419,-0.023112470284104347,0.9770446419715881,0.00793727021664381,-0.5742484927177429,10.70659065246582,-7.088529586791992,5.990540027618408,-36.75947189331055
1781545723253180,676595893,0.21514078974723816,-0.02458392269909382,-0.023197291418910027,0.9759989976882935,-0.305581271648407,-0.5048161745071411,10.129281997680664,-4.460611343383789,6.668582916259766,-34.107540130615234
1781545723281880,676612560,0.21941085159778595,-0.025237688794732094,-0.02336185611784458,0.9750272631645203,-0.42368608713150024,-0.3874097466468811,9.722079277038574,-4.923802375793457,5.858099460601807,-31.111726760864258
1781545723285031,676629227,0.22330056130886078,-0.025823531672358513,-0.02396010234951973,0.974113941192627,-0.30029696226119995,-0.29989752173423767,9.560004234313965,-7.7874250411987305,4.674953460693359,-28.559825897216797
1781545723314090,676645894,0.22665905952453613,-0.025603005662560463,-0.025044383481144905,0.9733165502548218,-0.6042028069496155,-0.2743600308895111,9.519155502319336,-9.88200855255127,-1.5810506343841553,-25.04294776916504
1781545723315167,676662561,0.22990326583385468,-0.024627290666103363,-0.02709590643644333,0.9725254774093628,-0.6172691583633423,-0.37179917097091675,9.595439910888672,-15.199467658996582,-8.165840148925781,-24.569826126098633
1781545723341865,676679228,0.23322780430316925,-0.02404855750501156,-0.029743678867816925,0.9716706275939941,-0.5406522750854492,-0.4936504364013672,9.950418472290039,-19.814468383789062,-6.431373119354248,-25.230831146240234
1781545723371638,676695895,0.2362758219242096,-0.02404485084116459,-0.032316483557224274,0.9708519577980042,-0.28250521421432495,-0.5892828106880188,10.249360084533691,-20.275667190551758,-2.5348715782165527,-23.196613311767578
1781545723373933,676712562,0.2388603389263153,-0.024002475664019585,-0.03436148911714554,0.9701499938964844,0.006333649158477783,-0.6439852714538574,10.421993255615234,-16.74199676513672,-2.058689594268799,-19.833110809326172
1781545723401861,676729229,0.24129772186279297,-0.0238769743591547,-0.03614402934908867,0.9694849848747253,-0.14672274887561798,-0.7420451045036316,10.329947471618652,-14.8716459274292,-2.221803903579712,-18.766002655029297
1781545723403269,676745896,0.2436673939228058,-0.0236208476126194,-0.03784662112593651,0.9688332676887512,-0.16261468827724457,-0.747806191444397,10.231986999511719,-14.130615234375,-2.9791338443756104,-18.31270408630371
1781545723432014,676762563,0.24593886733055115,-0.023366982117295265,-0.0394623801112175,0.9682009220123291,-0.07791744917631149,-0.7572978138923645,10.10486125946045,-13.567824363708496,-2.847752571105957,-17.610565185546875
1781545723433841,676779230,0.24804610013961792,-0.02269137091934681,-0.04104262590408325,0.9676135182380676,-0.11769796162843704,-0.7703247666358948,10.047460556030273,-12.633435249328613,-5.646674633026123,-16.550979614257812
1781545723461634,676795897,0.2500919699668884,-0.022036541253328323,-0.04263419285416603,0.9670331478118896,-0.07159455865621567,-0.8043282628059387,10.025774955749512,-12.752942085266113,-5.546503067016602,-16.125795364379883
1781545723464244,676812564,0.2523360252380371,-0.020718885585665703,-0.04433721303939819,0.9664024114608765,-0.0263754203915596,-0.8887801170349121,10.200550079345703,-12.340351104736328,-10.079436302185059,-17.741708755493164
1781545723492047,676829231,0.25494927167892456,-0.019154615700244904,-0.04588852450251579,0.9656763076782227,0.2546223998069763,-0.9538037776947021,10.534050941467285,-10.882040977478027,-11.328906059265137,-20.41262435913086
1781545723522246,676845898,0.2580932676792145,-0.019104301929473877,-0.046746209263801575,0.9648003578186035,0.6550494432449341,-0.9596049785614014,10.769811630249023,-8.909038543701172,0.12693041563034058,-23.629329681396484
1781545723523288,676862565,0.26197218894958496,-0.020193012431263924,-0.046622924506664276,0.9637381434440613,0.923238217830658,-0.8757572174072266,10.66340446472168,-4.388032913208008,9.68774700164795,-28.342077255249023
1781545723552418,676879232,0.26721644401550293,-0.022235574200749397,-0.04589409381151199,0.9622873067855835,1.292826533317566,-0.7866750359535217,10.278359413146973,-2.030792236328125,17.59562873840332,-37.701560974121094
1781545723553440,676895899,0.2743430435657501,-0.024747932329773903,-0.04470163211226463,0.9602746367454529,1.6342555284500122,-0.6772598028182983,10.205297470092773,0.28108328580856323,22.24293327331543,-50.97116470336914
1781545723582724,676912566,0.28327813744544983,-0.026178142055869102,-0.0428149439394474,0.9577250480651855,1.6038185358047485,-0.7284038066864014,10.230496406555176,7.044140338897705,17.0642147064209,-64.1420669555664
1781545723584038,676929233,0.2934670150279999,-0.02557521127164364,-0.0403682142496109,0.9547752141952515,1.3141834735870361,-0.8632078170776367,10.427660942077637,14.794417381286621,5.2166876792907715,-73.6812744140625
1781545723611942,676945900,0.30429133772850037,-0.023542996495962143,-0.0373234897851944,0.9515576362609863,0.9673486948013306,-0.9184670448303223,10.628209114074707,21.636816024780273,-2.730006217956543,-78.68653869628906
1781545723613547,676962567,0.3146898150444031,-0.02027333900332451,-0.03352443873882294,0.9483868479728699,0.3979126513004303,-0.8193956017494202,10.463356018066406,29.099679946899414,-9.361970901489258,-76.00121307373047
1781545723642229,676979234,0.3240725100040436,-0.017968498170375824,-0.02931593358516693,0.9454084634780884,-0.5097178220748901,-0.7459298372268677,10.075923919677734,29.580955505371094,-2.447021484375,-68.68086242675781
1781545723672583,676995901,0.3319239020347595,-0.017613325268030167,-0.025316866114735603,0.942803144454956,-1.4975131750106812,-0.6458274126052856,9.540901184082031,23.75917625427246,9.397384643554688,-57.53386688232422
1781545723673613,677012568,0.3378881812095642,-0.017550533637404442,-0.02263561822474003,0.9407516121864319,-2.4351255893707275,-0.5522992014884949,8.933549880981445,14.416533470153809,7.876330852508545,-44.143611907958984
1781545723701967,677029235,0.3415287733078003,-0.015212609432637691,-0.02178211137652397,0.9394969940185547,-2.9798994064331055,-0.45171651244163513,8.85125732421875,7.723311424255371,-11.561354637145996,-27.8335018157959
1781545723703839,677045902,0.34247371554374695,-0.010916102677583694,-0.022987879812717438,0.9391840696334839,-3.193063497543335,-0.3983874022960663,9.142352104187012,-1.1198678016662598,-29.570884704589844,-8.716236114501953
1781545723733820,677062569,0.34048396348953247,-0.004790379200130701,-0.025435790419578552,0.9398953318595886,-2.6098520755767822,-0.30854251980781555,9.404436111450195,-4.892062664031982,-44.86968231201172,12.268634796142578
1781545723734500,677079236,0.33573269844055176,1.493614399805665e-05,-0.028559081256389618,0.9415255188941956,-1.3400137424468994,-0.09254591912031174,9.467851638793945,-12.277920722961426,-38.44790267944336,32.476226806640625
1781545723761727,677095903,0.3291803002357483,0.0033402389381080866,-0.031864233314991,0.9437248110771179,-0.18631094694137573,-0.14682608842849731,9.389881134033203,-16.761180877685547,-29.64881706237793,45.745948791503906
1781545723763518,677112570,0.3218958377838135,0.008662005886435509,-0.03548042103648186,0.9460716843605042,0.21945536136627197,-0.4511295258998871,9.868620872497559,-14.212884902954102,-43.464332580566406,50.40079116821289
1781545723791901,677129237,0.3142762780189514,0.016431182622909546,-0.039398349821567535,0.9483728408813477,0.6308611035346985,-0.8023900389671326,10.319159507751465,-10.750712394714355,-60.13517761230469,51.901458740234375
1781545723821815,677145904,0.30676934123039246,0.024691155180335045,-0.04360608011484146,0.9504651427268982,0.6406399011611938,-1.036048173904419,10.734838485717773,-11.648178100585938,-63.95193099975586,50.61927795410156
1781545723824242,677162571,0.29972055554389954,0.03259427100419998,-0.04751437157392502,0.9522868990898132,1.5150362253189087,-0.9043273329734802,10.81926155090332,-10.59945297241211,-60.89533615112305,47.11548614501953
1781545723851629,677179238,0.2940923571586609,0.03780340775847435,-0.05057446286082268,0.9536905288696289,2.4157776832580566,-0.7477418780326843,10.606966972351074,-11.049971580505371,-41.13235092163086,37.64529800415039
1781545723853215,677195905,0.2898560166358948,0.04266704246401787,-0.05284256488084793,0.9546586871147156,2.2359917163848877,-0.8668685555458069,10.421272277832031,-7.068979740142822,-36.884246826171875,27.554384231567383
1781545723881960,677212572,0.28643307089805603,0.048197463154792786,-0.05470985919237137,0.955323338508606,1.9239559173583984,-1.002487063407898,10.349605560302734,-3.4574577808380127,-40.248008728027344,21.25192642211914
1781545723883903,677229239,0.28396111726760864,0.0518157072365284,-0.056035399436950684,0.9557950496673584,2.42748761177063,-0.8481533527374268,10.328264236450195,-4.050635814666748,-26.322729110717773,15.166679382324219
1781545723911890,677245906,0.282796174287796,0.05253574252128601,-0.05634291470050812,0.9560828804969788,2.8951046466827393,-0.6746253967285156,10.319543838500977,-3.554826021194458,-4.844630718231201,6.971733570098877
1781545723913311,677262573,0.2832823395729065,0.05174471065402031,-0.05580773577094078,0.9560134410858154,3.003613233566284,-0.5776209831237793,10.268120765686035,-1.6891839504241943,7.2465081214904785,-4.296710968017578
1781545723941806,677279240,0.2854888439178467,0.04972400516271591,-0.05466940626502037,0.9555299282073975,2.977572441101074,-0.5110316872596741,10.034058570861816,-0.8923865556716919,17.026334762573242,-16.156740188598633
1781545723971828,677295907,0.2897341847419739,0.04654713720083237,-0.053697727620601654,0.9544665217399597,2.941610097885132,-0.504395604133606,9.811225891113281,-5.1739091873168945,24.87213706970215,-30.20218849182129
1781545723975016,677312574,0.29512277245521545,0.04307659715414047,-0.05268757790327072,0.9530336856842041,2.403193235397339,-0.4099375009536743,9.85049057006836,-6.011962890625,27.188907623291016,-38.34721374511719
1781545724002199,677329241,0.30112525820732117,0.03897491842508316,-0.05127715319395065,0.9514082074165344,1.9950523376464844,-0.4545891582965851,9.84384822845459,-4.9246296882629395,32.30757141113281,-42.655494689941406
1781545724004555,677345908,0.3075505495071411,0.03497223183512688,-0.04971176013350487,0.949589729309082,1.0790207386016846,-0.6786110997200012,10.155132293701172,-3.8895111083984375,32.08140182495117,-45.89887237548828
1781545724032559,677362575,0.3137868046760559,0.031978558748960495,-0.04796678572893143,0.9477429389953613,0.3213062882423401,-0.8801982402801514,10.414665222167969,-0.5491286516189575,25.799266815185547,-45.11673355102539
1781545724033929,677379242,0.31921979784965515,0.02915884554386139,-0.04617514833807945,0.9461070895195007,-0.05544131249189377,-0.9276389479637146,10.586329460144043,0.3774379789829254,24.540422439575195,-39.49470901489258
1781545724062263,677395909,0.3235587775707245,0.026459766551852226,-0.04422582685947418,0.9448046088218689,-0.045675214380025864,-0.7226767539978027,10.39180850982666,1.9943888187408447,23.811845779418945,-31.71491050720215
1781545724063857,677412576,0.32668691873550415,0.024059992283582687,-0.04235415905714035,0.9438776969909668,-0.07466483861207962,-0.49354586005210876,9.840685844421387,2.491772413253784,21.38655662536621,-23.0867919921875
1781545724092412,677429243,0.32872411608695984,0.02220035530626774,-0.04113537818193436,0.9432696104049683,-0.1610916703939438,-0.305683434009552,9.34334945678711,-0.2587655484676361,16.14299964904785,-15.34424877166748
1781545724122485,677445910,0.32943710684776306,0.021164240315556526,-0.0408475324511528,0.943057119846344,-0.2986886203289032,-0.24564926326274872,9.19521713256836,-4.122058391571045,8.377335548400879,-5.950652599334717
1781545724123262,677462577,0.32930949330329895,0.021037112921476364,-0.04149245843291283,0.9430763125419617,0.03672102838754654,-0.3280786871910095,9.497987747192383,-7.924903869628906,0.16198113560676575,-0.09684163331985474
1781545724152390,677479244,0.3289966285228729,0.021929532289505005,-0.04278493672609329,0.9431074857711792,0.498927503824234,-0.464759886264801,9.98977279663086,-9.785888671875,-7.97022819519043,0.9342173933982849
1781545724153463,677495911,0.3286633789539337,0.023529358208179474,-0.044164057821035385,0.9431214928627014,0.8441895842552185,-0.6182068586349487,10.397406578063965,-8.7507905960083,-12.76327896118164,0.8321380615234375
1781545724181796,677512578,0.32839885354042053,0.024759458377957344,-0.04503924772143364,0.9431406855583191,1.1932003498077393,-0.6726758480072021,10.562291145324707,-6.327325344085693,-9.205092430114746,0.43092745542526245
1781545724183500,677529245,0.32831209897994995,0.02583892084658146,-0.045429378747940063,0.9431232213973999,1.3087074756622314,-0.6404827833175659,10.424310684204102,-3.563892364501953,-7.082489013671875,-0.8411852717399597
1781545724211644,677545912,0.3284016251564026,0.02623768523335457,-0.04550017789006233,0.9430777430534363,1.1856193542480469,-0.6018083691596985,10.22849178314209,-3.06950306892395,-1.895314335823059,-1.8887832164764404
1781545724213541,677562579,0.3285384178161621,0.026837032288312912,-0.04549555480480194,0.9430133104324341,0.9678429365158081,-0.5421555638313293,10.016141891479492,-2.1424129009246826,-3.0123865604400635,-2.3189098834991455
1781545724241841,677579246,0.3286881744861603,0.027363067492842674,-0.045708201825618744,0.9429357647895813,0.8229431509971619,-0.5585623979568481,9.945246696472168,-3.723562240600586,-3.025871992111206,-2.3685219287872314
1781545724272659,677595913,0.328861802816391,0.027328725904226303,-0.045908812433481216,0.942866325378418,0.8262805938720703,-0.5664286017417908,10.010112762451172,-4.913539886474609,0.642629086971283,-2.3309733867645264
1781545724274327,677612580,0.32910338044166565,0.027612382546067238,-0.04622628167271614,0.9427582025527954,0.8005898594856262,-0.6169825792312622,10.093523025512695,-4.977674961090088,-1.6696407794952393,-2.9379689693450928
1781545724303069,677629247,0.32930970191955566,0.02769290842115879,-0.04652746021747589,0.9426690340042114,0.8723950386047363,-0.6075289249420166,10.236077308654785,-5.318451881408691,-0.32444891333580017,-2.6036975383758545
1781545724303855,677645914,0.32938966155052185,0.027526266872882843,-0.04654465243220329,0.9426451921463013,0.98526531457901,-0.5662772059440613,10.27816104888916,-3.992405652999878,1.8916966915130615,-1.6126141548156738
1781545724332660,677662581,0.3294053375720978,0.02728995308279991,-0.0464380718767643,0.9426518082618713,1.0276418924331665,-0.5026769638061523,10.109021186828613,-3.325885772705078,2.6089155673980713,-1.1271764039993286
1781545724333800,677679248,0.32935041189193726,0.02712266519665718,-0.046429917216300964,0.9426760673522949,0.8419020175933838,-0.47357210516929626,9.914403915405273,-3.789668083190918,1.9201520681381226,-0.6352461576461792
1781545724361832,677695915,0.32926201820373535,0.02685222588479519,-0.04672926291823387,0.9427000284194946,0.7835860252380371,-0.4956701099872589,9.86404037475586,-6.010354042053223,1.8811826705932617,-0.3275608718395233
1781545724363500,677712582,0.32912248373031616,0.026355326175689697,-0.04727384075522423,0.942735493183136,0.7748252153396606,-0.5226369500160217,9.92215633392334,-8.10062026977539,2.778972625732422,0.14489750564098358
1781545724391824,677729249,0.3289297819137573,0.026246359571814537,-0.0479002483189106,0.9427741765975952,0.8642112612724304,-0.5497545003890991,10.06181812286377,-7.742131233215332,0.06205317750573158,0.38609227538108826
1781545724422224,677745916,0.3286876082420349,0.026330236345529556,-0.04855675995349884,0.9428225159645081,0.933483898639679,-0.6119707226753235,10.159246444702148,-7.489039421081543,-1.2710943222045898,0.6749138832092285
1781545724424173,677762583,0.3283641040325165,0.026270627975463867,-0.049031563103199005,0.9429124593734741,0.898341178894043,-0.6815528869628906,10.255058288574219,-6.60736083984375,0.050425007939338684,1.307931900024414
1781545724452018,677779250,0.32796815037727356,0.02622414380311966,-0.04932473599910736,0.9430361986160278,1.0064641237258911,-0.6192144155502319,10.172501564025879,-5.3750691413879395,0.3572779893875122,1.8154988288879395
1781545724453987,677795917,0.32768306136131287,0.02616775967180729,-0.0496327243745327,0.9431205987930298,1.0235120058059692,-0.6275220513343811,10.088891983032227,-5.527054309844971,0.41881251335144043,1.0146023035049438
1781545724481731,677812584,0.32754939794540405,0.026322660967707634,-0.05002503842115402,0.9431420564651489,0.9927679300308228,-0.6158915162086487,10.05960750579834,-5.647088050842285,-1.0999245643615723,-0.16828826069831848
1781545724483850,677829251,0.3274662494659424,0.026453055441379547,-0.05043613910675049,0.9431453943252563,0.9596152305603027,-0.6324818730354309,10.100739479064941,-5.839569091796875,-0.9686853885650635,-0.5235365033149719
1781545724513290,677845918,0.327313095331192,0.02642051875591278,-0.05075825750827789,0.9431821703910828,0.9218780398368835,-0.6528992652893066,10.152997970581055,-5.605288505554199,0.2703612744808197,0.046365391463041306
1781545724514189,677862585,0.3270648121833801,0.026419129222631454,-0.050978999584913254,0.9432563781738281,0.8813465237617493,-0.6963147521018982,10.131363868713379,-4.847165107727051,0.26997706294059753,0.7204147577285767
1781545724542168,677879252,0.3267512321472168,0.026196187362074852,-0.05120635777711868,0.943358838558197,0.873918354511261,-0.7334626317024231,10.113531112670898,-5.3660783767700195,1.6738861799240112,1.2852901220321655
1781545724571938,677895919,0.32636842131614685,0.02574438787996769,-0.051378048956394196,0.9434944987297058,0.9316132068634033,-0.7076776623725891,10.07186508178711,-5.494910717010498,3.264486074447632,1.8786979913711548
1781545724574195,677912586,0.32598528265953064,0.025316232815384865,-0.051595915108919144,0.9436265826225281,0.9542801976203918,-0.7110873460769653,10.001214981079102,-5.742111682891846,3.0068416595458984,1.8719298839569092
1781545724601757,677929253,0.3256663978099823,0.0250100027769804,-0.051875919103622437,0.9437295794487,0.9850495457649231,-0.6977740526199341,9.998043060302734,-5.893456935882568,2.094728469848633,1.3557891845703125
1781545724603614,677945920,0.32547202706336975,0.025060467422008514,-0.05236345902085304,0.9437685012817383,0.9965249300003052,-0.7050125598907471,10.053842544555664,-6.485546588897705,-0.6503065824508667,0.31273752450942993
1781545724631650,677962587,0.32530122995376587,0.025095194578170776,-0.05291450396180153,0.9437955021858215,0.9781128168106079,-0.7400799989700317,10.12663459777832,-6.940991401672363,-0.6832060813903809,0.14839361608028412
1781545724633266,677979254,0.3250957727432251,0.02515883557498455,-0.05352221429347992,0.9438302516937256,0.9217134118080139,-0.7310723066329956,10.076700210571289,-7.235421657562256,-1.008628249168396,0.3927515745162964
1781545724661651,677995921,0.3247726261615753,0.024900738149881363,-0.05428435280919075,0.94390469789505,0.8446195125579834,-0.7028888463973999,9.953310012817383,-8.921661376953125,0.6978246569633484,1.3900080919265747
1781545724663524,678012588,0.32425910234451294,0.024480454623699188,-0.05542871356010437,0.9440257549285889,0.8302255272865295,-0.6773887872695923,9.819701194763184,-11.714497566223145,0.8335336446762085,2.8562588691711426
1781545724691803,678029255,0.32353475689888,0.024022944271564484,-0.05715198069810867,0.9441832900047302,0.8644574880599976,-0.7412595152854919,9.773123741149902,-15.505417823791504,-0.28933411836624146,4.415179252624512
1781545724721708,678045922,0.32266494631767273,0.023468682542443275,-0.059643663465976715,0.9443406462669373,0.913006603717804,-0.8264048099517822,9.956774711608887,-20.684274673461914,-1.4275389909744263,5.527095794677734
1781545724724248,678062589,0.3216685652732849,0.023054935038089752,-0.0627896785736084,0.9444867968559265,1.104967713356018,-0.7896747589111328,10.096569061279297,-24.605398178100586,-3.8440403938293457,6.370457649230957
1781545724751639,678079256,0.32035717368125916,0.022916607558727264,-0.06708217412233353,0.9446408748626709,0.8962973356246948,-0.8230032324790955,9.939955711364746,-31.389650344848633,-8.301070213317871,8.497117042541504
1781545724753207,678095923,0.31793177127838135,0.025241335853934288,-0.07364644855260849,0.9449120163917542,0.7633750438690186,-1.105638861656189,9.511536598205566,-40.49025344848633,-29.796171188354492,15.214957237243652
1781545724781659,678112590,0.3131403625011444,0.03308846428990364,-0.08405926078557968,0.9454006552696228,1.2421514987945557,-1.6092511415481567,9.000614166259766,-52.901832580566406,-75.24703216552734,28.934738159179688
1781545724783566,678129257,0.30757659673690796,0.0504084974527359,-0.10135988891124725,0.9447653889656067,3.0664422512054443,-2.3938779830932617,8.164928436279297,-77.7563705444336,-152.3617401123047,27.641185760498047
1781545724811643,678145924,0.3040011525154114,0.07245935499668121,-0.12406519800424576,0.9417752623558044,5.954411029815674,-2.8628017902374268,11.15878677368164,-105.19259643554688,-193.95497131347656,8.337388038635254
1781545724813289,678162591,0.30238285660743713,0.09366457164287567,-0.14546987414360046,0.9373526573181152,8.375426292419434,-3.7060437202453613,12.56674575805664,-100.7311019897461,-184.77590942382812,-7.248642444610596
1781545724841826,678179258,0.3039361536502838,0.11027859896421432,-0.16371122002601624,0.9320192933082581,9.10647201538086,-4.356606483459473,13.161563873291016,-92.83574676513672,-145.98147583007812,-27.013057708740234
1781545724871747,678195925,0.306438148021698,0.12126614898443222,-0.1765061616897583,0.9274889826774597,8.904685974121094,-5.233321666717529,12.835554122924805,-69.4991226196289,-96.83036804199219,-29.197553634643555
1781545724873217,678212592,0.31112611293792725,0.12147779762744904,-0.18354114890098572,0.9245304465293884,10.544668197631836,-5.19793701171875,11.857647895812988,-55.375831604003906,-11.987547874450684,-31.538818359375
1781545724901628,678229259,0.3198506534099579,0.11082381010055542,-0.18542993068695068,0.9225124716758728,11.979467391967773,-4.740171432495117,10.355987548828125,-48.083457946777344,74.00119018554688,-45.763427734375
1781545724903675,678245926,0.3329835832118988,0.09643389284610748,-0.18415291607379913,0.9197337031364441,12.5242919921875,-4.40909481048584,8.678998947143555,-40.54841613769531,109.74735260009766,-73.04371643066406
1781545724931817,678262593,0.3500760495662689,0.08508336544036865,-0.18235722184181213,0.9148514866828918,11.551156997680664,-4.2912702560424805,7.399200916290283,-35.60029602050781,95.38424682617188,-107.08590698242188
1781545724933686,678279260,0.37086501717567444,0.07943882048130035,-0.18251018226146698,0.9071044921875,10.257250785827637,-4.351222515106201,6.446932792663574,-39.88249969482422,57.80630111694336,-143.2400360107422
1781545724962087,678295927,0.39516937732696533,0.07853488624095917,-0.18610990047454834,0.8961229920387268,8.687795639038086,-4.3756208419799805,6.018599987030029,-55.28001403808594,22.131547927856445,-177.47019958496094
1781545724963790,678312594,0.4218658208847046,0.08300527930259705,-0.19292671978473663,0.8819968700408936,7.790499210357666,-4.407235622406006,6.003713607788086,-65.82659912109375,-18.337648391723633,-205.88455200195312
1781545724992100,678329261,0.4503336548805237,0.09103531390428543,-0.20245090126991272,0.8648269772529602,7.005867004394531,-4.572259426116943,6.01171875,-76.98453521728516,-47.15296936035156,-228.6212615966797
1781545725022044,678345928,0.47986483573913574,0.09816278517246246,-0.2127240151166916,0.8454834818840027,5.3832573890686035,-4.9504780769348145,6.241086483001709,-87.93830871582031,-43.97746658325195,-239.92916870117188
1781545725023410,678362595,0.5086039900779724,0.10415685921907425,-0.2218208909034729,0.825390100479126,3.4562549591064453,-5.025979518890381,6.852737903594971,-85.40908813476562,-35.17489242553711,-236.9086151123047
1781545725052563,678379262,0.5349271297454834,0.10511282831430435,-0.22776757180690765,0.8067998886108398,1.7927056550979614,-5.2788777351379395,5.929477691650391,-81.12818908691406,1.8138573169708252,-212.48312377929688
1781545725053760,678395929,0.560396134853363,0.09885273873806,-0.23129628598690033,0.789104700088501,-0.14656378328800201,-5.257750511169434,5.179590702056885,-92.23689270019531,50.02711868286133,-194.88128662109375
1781545725082183,678412596,0.584763765335083,0.08765013515949249,-0.23305420577526093,0.7720456123352051,-1.2558560371398926,-4.8845930099487305,5.671982765197754,-99.91089630126953,82.31809997558594,-179.7899169921875
1781545725083887,678429263,0.6071306467056274,0.07423841208219528,-0.2333073616027832,0.755942165851593,-1.8986563682556152,-4.748268127441406,5.728616714477539,-98.06680297851562,97.42845916748047,-162.6929931640625
1781545725111607,678445930,0.6279186010360718,0.06052827090024948,-0.23385323584079742,0.7398426532745361,-2.665229558944702,-4.688657760620117,5.967185020446777,-100.01981353759766,95.18647003173828,-153.84239196777344
1781545725113149,678462597,0.6459094882011414,0.04758244752883911,-0.2351388931274414,0.7247389554977417,-3.0683274269104004,-4.260314464569092,6.0338664054870605,-97.71173095703125,83.9749984741211,-136.23956298828125
1781545725141816,678479264,0.6608458161354065,0.03439094498753548,-0.23725323379039764,0.711203932762146,-3.197732448577881,-4.053008556365967,5.895739555358887,-99.39437103271484,77.05073547363281,-113.39196014404297
1781545725171970,678495931,0.6727690696716309,0.020763671025633812,-0.240521639585495,0.6993568539619446,-2.9718775749206543,-4.332586765289307,6.052914619445801,-103.54857635498047,69.38093566894531,-90.02007293701172
1781545725173763,678512598,0.6820416450500488,0.006955783814191818,-0.24582019448280334,0.6887257695198059,-2.8546745777130127,-4.82130241394043,7.149456024169922,-111.7488021850586,56.61133575439453,-71.07628631591797
1781545725231925,678529265,0.6891729235649109,-0.005149010568857193,-0.25322940945625305,0.6788880825042725,-2.064277172088623,-5.108896732330322,8.528387069702148,-112.30575561523438,35.031982421875,-60.00994110107422
1781545725233151,678545932,0.6946895718574524,-0.015624139457941055,-0.2609211802482605,0.6701362133026123,-0.9271886944770813,-5.226998329162598,9.632682800292969,-104.06181335449219,23.202880859375,-50.19016647338867
1781545725234968,678562599,0.6989837288856506,-0.02471122331917286,-0.26783955097198486,0.6626259088516235,-0.025219136849045753,-5.211807727813721,10.240547180175781,-91.77008056640625,18.149309158325195,-41.05630874633789
1781545725261757,678579266,0.7026370167732239,-0.03361751139163971,-0.2728385925292969,0.65630042552948,0.5382691621780396,-5.169398307800293,10.342954635620117,-80.0820541381836,25.147926330566406,-32.46629333496094
1781545725263924,678595933,0.7059552073478699,-0.04309877008199692,-0.2756694555282593,0.650981068611145,0.543491780757904,-5.241254806518555,10.591032981872559,-71.26852416992188,37.33796691894531,-24.533340454101562
1781545725264816,678612600,0.708808183670044,-0.05249340087175369,-0.27639082074165344,0.6468721628189087,1.113579511642456,-5.128886699676514,10.703930854797363,-59.25286102294922,45.933475494384766,-16.134502410888672
1781545725291889,678629267,0.7113987803459167,-0.061111465096473694,-0.27565938234329224,0.6435753703117371,1.8140960931777954,-5.00176477432251,10.434332847595215,-47.56231689453125,48.75524139404297,-11.975584983825684
1781545725322097,678645934,0.7139308452606201,-0.06876267492771149,-0.2740863561630249,0.6406646370887756,2.2133922576904297,-4.802046775817871,10.042137145996094,-38.4043083190918,48.311012268066406,-11.321045875549316
1781545725323162,678662601,0.7164689898490906,-0.07561003416776657,-0.2722737491130829,0.637826144695282,2.3118770122528076,-4.622855186462402,9.46733283996582,-33.26829528808594,45.919578552246094,-12.405799865722656
1781545725352027,678679268,0.7188857197761536,-0.08188239485025406,-0.2709304392337799,0.6348978281021118,2.278820037841797,-4.413632869720459,8.982461929321289,-32.727413177490234,40.90216827392578,-13.643512725830078
1781545725353648,678695935,0.7208999395370483,-0.08721742779016495,-0.2707523703575134,0.6319727301597595,2.3841142654418945,-4.412724494934082,8.678791046142578,-33.40558624267578,30.298097610473633,-14.281150817871094
1781545725381639,678712602,0.722569465637207,-0.09208633005619049,-0.2717697024345398,0.6289314031600952,2.320110559463501,-4.6322407722473145,8.752107620239258,-36.712890625,21.773441314697266,-14.946527481079102
1781545725383171,678729269,0.7239062190055847,-0.09626119583845139,-0.274052232503891,0.6257705688476562,2.162074327468872,-4.953319549560547,9.178442001342773,-39.1707649230957,11.9398832321167,-16.201190948486328
1781545725412131,678745936,0.7249153256416321,-0.09883424639701843,-0.27743539214134216,0.6227031946182251,2.222151517868042,-5.041419506072998,9.823430061340332,-35.97652816772461,-1.1115719079971313,-18.0811710357666
1781545725413291,678762603,0.7258198261260986,-0.10017187893390656,-0.2808103561401367,0.6199166774749756,2.2690889835357666,-5.096846103668213,10.060131072998047,-29.324092864990234,-6.753432273864746,-18.588945388793945
1781545725441800,678779270,0.7267634272575378,-0.10111142694950104,-0.2833007872104645,0.6175209283828735,2.141824722290039,-4.985143661499023,9.963924407958984,-22.79113006591797,-4.232908248901367,-16.969667434692383
1781545725472020,678795937,0.7275235652923584,-0.10202185809612274,-0.2848522365093231,0.6157597303390503,1.871541142463684,-4.894694805145264,9.580228805541992,-17.557893753051758,-0.4666385352611542,-12.433385848999023
1781545725473603,678812604,0.7279856204986572,-0.10317905992269516,-0.2858230471611023,0.6145700216293335,1.9903104305267334,-4.849946975708008,9.327376365661621,-15.430116653442383,2.4944040775299072,-7.432826042175293
1781545725502116,678829271,0.7282305955886841,-0.10448919981718063,-0.28639456629753113,0.613791823387146,2.2562551498413086,-4.834394454956055,9.327808380126953,-13.860103607177734,4.418584823608398,-3.880185604095459
1781545725503655,678845938,0.7284755110740662,-0.10599036514759064,-0.2862299978733063,0.6133202314376831,2.5481226444244385,-4.81110143661499,9.339951515197754,-11.11174201965332,8.687761306762695,-1.4461193084716797
1781545725532091,678862605,0.7286983132362366,-0.1072058454155922,-0.28570693731307983,0.6130882501602173,2.7284719944000244,-4.73520565032959,9.22348403930664,-7.71926212310791,9.059402465820312,-0.45713576674461365
1781545725533992,678879272,0.728939414024353,-0.10792908072471619,-0.2849847972393036,0.6130106449127197,2.83266282081604,-4.677402019500732,8.978097915649414,-4.101656913757324,7.905278205871582,-0.5862107276916504
1781545725562162,678895939,0.7292594909667969,-0.10841745138168335,-0.2841712534427643,0.6129217743873596,2.7286524772644043,-4.684928894042969,8.718860626220703,-2.50689435005188,7.536890029907227,-1.3670908212661743
1781545725563429,678912606,0.7295853495597839,-0.10886432230472565,-0.2834327220916748,0.6127966642379761,2.6183784008026123,-4.6656270027160645,8.588827133178711,-2.68530011177063,7.0248284339904785,-1.7141557931900024
1781545725591937,678929273,0.729826807975769,-0.10923660546541214,-0.2827388346195221,0.6127634048461914,2.5395913124084473,-4.634949207305908,8.584647178649902,-2.3854260444641113,6.2528605461120605,-1.0797418355941772
1781545725622100,678945940,0.7299479246139526,-0.10945901274681091,-0.2820582687854767,0.6128931045532227,2.620586395263672,-4.595165729522705,8.463996887207031,-1.465161919593811,5.198655605316162,-0.058332931250333786
1781545725623536,678962607,0.730061948299408,-0.10996414721012115,-0.28123071789741516,0.6130470633506775,2.5856258869171143,-4.606648921966553,8.358002662658691,-2.2268199920654297,7.0961480140686035,0.7509709596633911
1781545725652104,678979274,0.7301226258277893,-0.11054748296737671,-0.2804575562477112,0.6132240891456604,2.6248137950897217,-4.580521106719971,8.320042610168457,-2.845942735671997,7.034049034118652,1.2005250453948975
1781545725653494,678995941,0.730151355266571,-0.11098207533359528,-0.2797946035861969,0.6134141087532043,2.7219693660736084,-4.623529434204102,8.344744682312012,-2.5650739669799805,5.782817363739014,1.028343677520752
1781545725682412,679012608,0.7302566170692444,-0.11134136468172073,-0.2790790796279907,0.6135495901107788,2.782907009124756,-4.610377788543701,8.377689361572266,-2.013658046722412,5.918717861175537,0.32745203375816345
1781545725684104,679029275,0.7303429841995239,-0.11169006675481796,-0.2782524824142456,0.6137588620185852,2.6594619750976562,-4.5880937576293945,8.256169319152832,-1.3662455081939697,6.339291095733643,0.8417807221412659
1781545725712102,679045942,0.7303847670555115,-0.1122179701924324,-0.2774961590766907,0.6139551997184753,2.50372052192688,-4.545804023742676,8.134516716003418,-2.623035192489624,6.668452739715576,1.254746913909912
1781545725713426,679062609,0.7302592396736145,-0.11257842183113098,-0.2772085666656494,0.6141685843467712,2.5597846508026123,-4.519001007080078,8.120174407958984,-3.8586816787719727,3.2764599323272705,1.3627943992614746
1781545725741799,679079276,0.7300792336463928,-0.11303430050611496,-0.27719879150390625,0.6143032312393188,2.584214448928833,-4.565393447875977,8.188187599182129,-5.705230236053467,2.243807315826416,1.1643726825714111
1781545725772030,679095943,0.7298170924186707,-0.11330582201480865,-0.27751708030700684,0.614421010017395,2.5998404026031494,-4.636086940765381,8.231066703796387,-6.262473106384277,-0.32434651255607605,0.8213290572166443
1781545725773567,679112610,0.7294793128967285,-0.11326916515827179,-0.2782028019428253,0.6145188212394714,2.5948288440704346,-4.726564407348633,8.438281059265137,-6.366856575012207,-3.5986104011535645,0.16588707268238068
1781545725802142,679129277,0.7290967702865601,-0.11299577355384827,-0.2789734899997711,0.6146736741065979,2.7338898181915283,-4.7833781242370605,8.542393684387207,-5.465200901031494,-5.153264045715332,0.12356209754943848
1781545725803658,679145944,0.7287825345993042,-0.11276639252901077,-0.27940991520881653,0.6148900985717773,2.7976622581481934,-4.790626525878906,8.597352027893066,-4.103500843048096,-3.208272695541382,0.48741617798805237
1781545725831620,679162611,0.7285613417625427,-0.1127123236656189,-0.27937591075897217,0.615177571773529,2.7554261684417725,-4.823470115661621,8.57836627960205,-2.7872891426086426,0.014708094298839569,1.1515278816223145
1781545725833599,679179278,0.7284274101257324,-0.11298378556966782,-0.27887848019599915,0.6155118942260742,2.7618799209594727,-4.792604923248291,8.551636695861816,-2.3017497062683105,3.8473029136657715,1.999385118484497
1781545725861754,679195945,0.728285014629364,-0.11323650926351547,-0.278251051902771,0.6159178018569946,2.766672134399414,-4.796618461608887,8.551663398742676,-1.5284638404846191,4.347161293029785,2.4585442543029785
1781545725863307,679212612,0.7281501889228821,-0.11335068941116333,-0.2776384949684143,0.616332471370697,2.773488998413086,-4.776593208312988,8.593836784362793,-0.8756341934204102,3.6953043937683105,2.1954119205474854
1781545725891757,679229279,0.7280346751213074,-0.11342853307723999,-0.2770030200481415,0.6167404651641846,2.765221357345581,-4.750733375549316,8.529531478881836,-0.5954567790031433,3.6998887062072754,2.0282888412475586
1781545725921610,679245946,0.727881133556366,-0.11358774453401566,-0.27645283937454224,0.6171392798423767,2.569017171859741,-4.72689151763916,8.467217445373535,-1.4136416912078857,3.552488088607788,2.232844829559326
1781545725923526,679262613,0.7276257872581482,-0.11373458057641983,-0.2760641872882843,0.6175870895385742,2.5522639751434326,-4.7187700271606445,8.479329109191895,-2.0252089500427246,2.461514711380005,2.7595057487487793
1781545725951610,679279280,0.7273351550102234,-0.11375801265239716,-0.27578553557395935,0.6180495023727417,2.577817678451538,-4.782777786254883,8.520408630371094,-1.8761430978775024,1.3101985454559326,2.6624341011047363
1781545725953454,679295947,0.7270411252975464,-0.11365561932325363,-0.2755759358406067,0.6185076832771301,2.5938494205474854,-4.814254283905029,8.58643627166748,-1.5520528554916382,0.42828917503356934,2.3634183406829834
1781545725981625,679312614,0.7266847491264343,-0.11340726166963577,-0.2752668559551239,0.6191092729568481,2.5397064685821533,-4.831690311431885,8.607458114624023,-0.17816194891929626,0.07452655583620071,3.1462578773498535
1781545725983442,679329281,0.726321280002594,-0.113304503262043,-0.274688184261322,0.6198111176490784,2.4233558177948,-4.812640190124512,8.629496574401855,0.4245882034301758,1.9508106708526611,4.161289215087891
1781545726011939,679345948,0.7257283329963684,-0.11314426362514496,-0.2739987373352051,0.6208393573760986,2.290009021759033,-4.828779697418213,8.615138053894043,1.619933009147644,1.57254958152771,6.741270065307617
1781545726013271,679362615,0.7249587774276733,-0.11308657377958298,-0.27314725518226624,0.6221228241920471,2.2552707195281982,-4.800783634185791,8.64980411529541,2.1409597396850586,2.286747455596924,9.090353965759277
1781545726041814,679379282,0.7239353060722351,-0.1126980260014534,-0.2722557485103607,0.6237736344337463,2.3530306816101074,-4.766097545623779,8.645085334777832,4.4527506828308105,0.30881887674331665,11.41392707824707
1781545726071727,679395949,0.7228366136550903,-0.1122724786400795,-0.2715420722961426,0.6254335641860962,2.356919765472412,-4.71949577331543,8.527995109558105,3.831040859222412,-0.8812311291694641,11.5725736618042
1781545726073976,679412616,0.7214844226837158,-0.11170028150081635,-0.271009624004364,0.6273256540298462,2.2193763256073,-4.723421573638916,8.538301467895508,4.016144752502441,-3.0638318061828613,13.402706146240234
1781545726101956,679429283,0.7200140953063965,-0.11086273193359375,-0.2710908353328705,0.6291256546974182,2.265610694885254,-4.741072654724121,8.499220848083496,2.42307186126709,-7.402190208435059,12.488933563232422
1781545726103785,679445950,0.7183678150177002,-0.10979146510362625,-0.27161353826522827,0.6309672594070435,2.35172176361084,-4.796676158905029,8.614216804504395,1.6121479272842407,-10.958019256591797,12.684733390808105
1781545726132580,679462617,0.716562807559967,-0.10855260491371155,-0.27243688702583313,0.6328760981559753,2.415527105331421,-4.849924087524414,8.713693618774414,1.1393502950668335,-13.514760971069336,13.164961814880371
1781545726134188,679479284,0.7144569158554077,-0.10722947865724564,-0.2732507586479187,0.635127604007721,2.490108013153076,-4.861542224884033,8.809142112731934,2.011195659637451,-14.653766632080078,16.01141357421875
1781545726162087,679495951,0.7120370268821716,-0.10596348345279694,-0.27398839592933655,0.6377345323562622,2.528315782546997,-4.864294052124023,8.86989688873291,2.4973526000976562,-14.879922866821289,19.288921356201172
1781545726163134,679512618,0.7093720436096191,-0.10505595803260803,-0.27442583441734314,0.6406600475311279,2.4488742351531982,-4.853357791900635,8.823434829711914,2.4780025482177734,-12.528929710388184,22.820348739624023
1781545726191799,679529285,0.7065688371658325,-0.10451259464025497,-0.2747015953063965,0.6437211036682129,2.3619160652160645,-4.809289932250977,8.65695571899414,1.5680453777313232,-10.494202613830566,24.89004135131836
1781545726222035,679545952,0.7035835385322571,-0.1035304144024849,-0.2756016254425049,0.6467574238777161,2.2970967292785645,-4.752002239227295,8.531647682189941,0.757696270942688,-15.793066024780273,24.30084228515625
1781545726223242,679562619,0.7002085447311401,-0.10116247832775116,-0.2779412269592285,0.6497867107391357,2.201979637145996,-4.787280559539795,8.537761688232422,0.7661498785018921,-29.649309158325195,22.348384857177734
1781545726252110,679579286,0.6962158679962158,-0.09723906964063644,-0.2819415032863617,0.6529450416564941,1.8877259492874146,-5.007547855377197,8.728618621826172,0.6500881314277649,-45.86380386352539,21.602758407592773
1781545726253929,679595953,0.6919490694999695,-0.09435615688562393,-0.28551778197288513,0.6563405990600586,2.080798387527466,-4.8287272453308105,8.857894897460938,-2.1534430980682373,-39.85404968261719,26.27005958557129
1781545726281981,679612620,0.6882079839706421,-0.09255003929138184,-0.28765180706977844,0.6595914959907532,3.073704957962036,-4.765606880187988,9.113197326660156,-0.7161346673965454,-27.005998611450195,26.254587173461914
1781545726283801,679629287,0.6835020780563354,-0.08848728984594345,-0.28978726267814636,0.6640921831130981,2.8639135360717773,-4.514756202697754,8.792253494262695,11.80942153930664,-39.94599533081055,32.08468246459961
1781545726312216,679645954,0.6797472238540649,-0.08617763966321945,-0.2901550531387329,0.6680771112442017,2.660996913909912,-4.765084266662598,8.37631893157959,11.186589241027832,-21.4211368560791,29.887630462646484
1781545726313210,679662621,0.6762763261795044,-0.08437229692935944,-0.290248841047287,0.671779215335846,2.8835244178771973,-4.755920886993408,8.478340148925781,9.690610885620117,-17.089157104492188,28.430130004882812
1781545726341959,679679288,0.6727219820022583,-0.08214709162712097,-0.29066649079322815,0.6754332184791565,2.676086187362671,-4.741700649261475,8.498970985412598,10.00095272064209,-20.66806983947754,27.567541122436523
1781545726372123,679695955,0.669346272945404,-0.07990895956754684,-0.2909500300884247,0.6789242625236511,2.7181098461151123,-4.588184356689453,8.37865161895752,10.457267761230469,-19.65845489501953,26.0366268157959
1781545726374167,679712622,0.6662482023239136,-0.07785200327634811,-0.2909259498119354,0.6822129487991333,2.7770891189575195,-4.570474624633789,8.19345474243164,10.804903030395508,-16.72688102722168,24.33748435974121
1781545726402051,679729289,0.6634050011634827,-0.0761224627494812,-0.2908335328102112,0.6852116584777832,2.7177956104278564,-4.4516096115112305,8.065337181091309,9.180147171020508,-14.212077140808105,22.507251739501953
1781545726403995,679745956,0.6605761647224426,-0.07425283640623093,-0.2909223735332489,0.688106119632721,2.7269580364227295,-4.411450386047363,7.918611526489258,8.763185501098633,-15.611367225646973,21.593313217163086
1781545726432021,679762623,0.657550036907196,-0.07190987467765808,-0.2916281223297119,0.6909485459327698,2.7772529125213623,-4.4748053550720215,7.987459182739258,7.788508415222168,-21.018478393554688,21.028501510620117
1781545726433619,679779290,0.6543727517127991,-0.0690886527299881,-0.29290902614593506,0.6937055587768555,2.6756975650787354,-4.625283718109131,8.120062828063965,6.9707865715026855,-26.149415969848633,20.120105743408203
1781545726461817,679795957,0.6511090397834778,-0.06583006680011749,-0.2946217358112335,0.6963629722595215,2.72131085395813,-4.720503807067871,8.258166313171387,6.635621547698975,-30.302780151367188,18.999235153198242
1781545726463707,679812624,0.6477658748626709,-0.06212734058499336,-0.2964649498462677,0.6990337371826172,2.82759165763855,-4.732475280761719,8.357614517211914,7.989482402801514,-33.17994689941406,18.483598709106445
1781545726491934,679829291,0.6441718339920044,-0.05814255401492119,-0.2984059154987335,0.701866090297699,2.549828290939331,-4.725416660308838,8.389676094055176,8.996125221252441,-35.54856872558594,19.79181480407715
1781545726521670,679845958,0.6405554413795471,-0.05426430329680443,-0.30005690455436707,0.7047766447067261,2.5829265117645264,-4.565823554992676,8.311450004577637,10.07288646697998,-33.82674789428711,20.581789016723633
1781545726523299,679862625,0.6368136405944824,-0.050203051418066025,-0.3016994297504425,0.7077609300613403,2.6041038036346436,-4.557639122009277,8.187616348266602,11.0226411819458,-34.9635009765625,21.142614364624023
1781545726551981,679879292,0.6331450939178467,-0.04601045325398445,-0.3034778833389282,0.7105712294578552,2.614946126937866,-4.624976634979248,8.133389472961426,10.597826957702637,-35.98479080200195,19.704429626464844
1781545726553595,679895959,0.629454493522644,-0.04186197742819786,-0.3054179549217224,0.7132702469825745,2.4564836025238037,-4.717555999755859,8.129487991333008,9.376786231994629,-36.4842643737793,19.372882843017578
1781545726581716,679912626,0.6255854368209839,-0.03751144930720329,-0.30731096863746643,0.7160976529121399,2.5529801845550537,-4.782413959503174,8.336109161376953,10.698234558105469,-37.68455123901367,20.3907470703125
1781545726583592,679929293,0.6212922930717468,-0.032466478645801544,-0.3090556263923645,0.7193236351013184,2.48650860786438,-4.880557537078857,8.634506225585938,15.145169258117676,-41.46253204345703,22.761493682861328
1781545726611796,679945960,0.6165429353713989,-0.027137339115142822,-0.3102886974811554,0.7230902314186096,2.1077089309692383,-4.927995204925537,8.648306846618652,19.93362045288086,-41.7750358581543,26.836145401000977
1781545726613425,679962627,0.6115800142288208,-0.022471940144896507,-0.31072282791137695,0.7272663116455078,1.7454020977020264,-4.846407413482666,8.60053539276123,21.9223690032959,-35.623355865478516,31.19418716430664
1781545726641824,679979294,0.6061024069786072,-0.01784955896437168,-0.3107339143753052,0.7319601774215698,1.5788660049438477,-4.870612621307373,8.451407432556152,24.879240036010742,-34.812049865722656,36.09539031982422
1781545726671667,679995961,0.6002594232559204,-0.01256051380187273,-0.3108252286911011,0.7368300557136536,1.4237167835235596,-4.961049556732178,8.606269836425781,27.58333396911621,-39.309383392333984,37.230377197265625
1781545726673490,680012628,0.593923807144165,-0.006169802509248257,-0.31123340129852295,0.7418559193611145,1.0893341302871704,-4.851273059844971,8.852437973022461,30.811044692993164,-47.269691467285156,37.981605529785156
1781545726702096,680029295,0.5867721438407898,0.00037133623845875263,-0.31132757663726807,0.7475115060806274,0.7480420470237732,-4.512506008148193,8.841382026672363,34.33362579345703,-48.53255081176758,44.396461486816406
1781545726704092,680045962,0.5783671140670776,0.006446506828069687,-0.3107008934020996,0.7542644143104553,0.3971995711326599,-4.415005207061768,8.64359188079834,38.50347137451172,-45.91872024536133,56.254966735839844
1781545726732113,680062629,0.5686565637588501,0.011577988043427467,-0.3091454803943634,0.7621842622756958,0.7371265888214111,-4.584630012512207,8.459253311157227,42.10816192626953,-40.07632827758789,69.6275634765625
1781545726733612,680079296,0.5576456189155579,0.01634320802986622,-0.3069618344306946,0.7710635662078857,0.8396846652030945,-5.103695392608643,8.485967636108398,46.10462951660156,-38.393157958984375,80.91407012939453
1781545726762092,680095963,0.5461698770523071,0.01957128942012787,-0.30330246686935425,0.7805915474891663,1.142390489578247,-5.233899116516113,8.698065757751465,49.45501708984375,-25.498958587646484,88.93535614013672
1781545726763657,680112630,0.5350106954574585,0.02112891525030136,-0.298128217458725,0.7902130484580994,1.8382874727249146,-4.852171897888184,8.58825397491455,51.46513748168945,-10.176332473754883,90.86119079589844
1781545726791791,680129297,0.5235108733177185,0.020994476974010468,-0.29182568192481995,0.8002082705497742,1.8028926849365234,-4.323777198791504,8.214041709899902,52.18558120727539,2.523158073425293,97.38607788085938
1781545726821740,680145964,0.5112745761871338,0.0198377575725317,-0.2853507995605469,0.8104194402694702,1.5342108011245728,-4.190798282623291,7.616684436798096,49.992820739746094,7.322742462158203,104.23387908935547
1781545726823884,680162631,0.4985182583332062,0.018337175250053406,-0.27973029017448425,0.8203012943267822,1.8786818981170654,-4.375833988189697,7.2930707931518555,43.450164794921875,5.170607566833496,106.76116180419922
1781545726851776,680179298,0.4857730269432068,0.016286121681332588,-0.2751602232456207,0.8294855356216431,2.2659575939178467,-4.5651164054870605,7.700907230377197,34.299861907958984,4.6144633293151855,105.49803924560547
1781545726854094,680195965,0.47291284799575806,0.0140166524797678,-0.27110791206359863,0.8382467031478882,2.4757330417633057,-4.467773914337158,8.209954261779785,29.836397171020508,3.8704023361206055,105.21089172363281
1781545726882188,680212632,0.4595375955104828,0.011673814617097378,-0.2675185799598694,0.8468309640884399,2.4974238872528076,-4.291081428527832,8.134760856628418,26.651931762695312,1.81989324092865,107.78182220458984
1781545726883728,680229299,0.4452947974205017,0.008810156024992466,-0.264043927192688,0.8555207252502441,2.2893269062042236,-4.349048137664795,7.990544319152832,24.605939865112305,2.911452531814575,114.13695526123047
1781545726911969,680245966,0.4304729998111725,0.004392535425722599,-0.2599022090435028,0.8643636107444763,2.5098941326141357,-4.698424816131592,7.978252410888672,24.08911895751953,13.061166763305664,120.79341125488281
1781545726913442,680262633,0.4154009521007538,-0.000907833338715136,-0.25526317954063416,0.8730875849723816,2.970707893371582,-5.203154563903809,8.165934562683105,24.23528480529785,19.339597702026367,123.49341583251953
1781545726941834,680279300,0.4013105034828186,-0.006926769390702248,-0.25039878487586975,0.881023645401001,3.4240145683288574,-5.239597797393799,8.586387634277344,22.170154571533203,26.036502838134766,116.61371612548828
1781545726971706,680295967,0.38790303468704224,-0.013606954365968704,-0.2450116127729416,0.888434112071991,2.775351047515869,-4.873663425445557,8.972190856933594,22.651750564575195,32.69860076904297,112.19496154785156
1781545726973383,680312634,0.37375062704086304,-0.020365426316857338,-0.23898564279079437,0.8959807753562927,2.4323837757110596,-4.359737396240234,8.552234649658203,26.513654708862305,33.62466812133789,117.30068969726562
1781545727002387,680329301,0.3580077886581421,-0.02733547054231167,-0.2332364022731781,0.9037056565284729,2.1363368034362793,-4.3431830406188965,7.600680828094482,24.343326568603516,31.590530395507812,127.86943817138672
1781545727004685,680345968,0.34134936332702637,-0.03385481610894203,-0.22939400374889374,0.9108856320381165,2.4881558418273926,-4.5693678855896,6.922381401062012,12.569051742553711,22.744991302490234,131.13865661621094
1781545727031694,680362635,0.325355589389801,-0.03748605027794838,-0.22818274796009064,0.9168812036514282,2.6274688243865967,-5.013760566711426,7.61271858215332,1.1681060791015625,-0.18184642493724823,119.0343246459961
1781545727033268,680379302,0.3109848201274872,-0.03958132863044739,-0.22742706537246704,0.9219537973403931,2.8919003009796143,-5.49506950378418,9.11501693725586,0.7154480218887329,-8.084808349609375,104.21808624267578
1781545727061692,680395969,0.2974157929420471,-0.04415613412857056,-0.22375035285949707,0.9271085262298584,2.4899861812591553,-5.473538875579834,9.921051979064941,14.288488388061523,15.124725341796875,103.9907455444336
1781545727063104,680412636,0.2820571959018707,-0.05095861479640007,-0.21799111366271973,0.9329131841659546,1.4869986772537231,-4.754417419433594,8.497993469238281,23.476259231567383,30.64669418334961,120.79525756835938
1781545727091778,680429303,0.2656651735305786,-0.059025831520557404,-0.21313536167144775,0.9383556246757507,1.3374577760696411,-4.192609786987305,6.6773223876953125,14.33577823638916,35.59634017944336,128.3045654296875
1781545727121657,680445970,0.24999016523361206,-0.0673268586397171,-0.21020376682281494,0.9427546262741089,1.0669697523117065,-4.2768449783325195,6.852331638336182,0.27152910828590393,35.07375717163086,121.3389663696289
1781545727123543,680462637,0.23626869916915894,-0.07303304970264435,-0.20920640230178833,0.9460844993591309,0.866277813911438,-4.744517803192139,8.090474128723145,-8.433099746704102,18.256195068359375,102.19365692138672
1781545727151646,680479304,0.22402940690517426,-0.07532109320163727,-0.20883937180042267,0.9489591121673584,0.6697302460670471,-5.220074653625488,8.957585334777832,-6.8792033195495605,-2.6325559616088867,86.58234405517578
1781545727153758,680495971,0.21195675432682037,-0.07648194581270218,-0.20788772404193878,0.9518443942070007,0.5821288824081421,-5.404280662536621,9.068531036376953,-1.216351866722107,-8.846529006958008,84.20466613769531
1781545727181842,680512638,0.20081670582294464,-0.07356639206409454,-0.20747607946395874,0.9545754194259644,0.8430911898612976,-5.304755210876465,9.068804740905762,1.4708614349365234,-34.8914794921875,71.7712631225586
1781545727183319,680529305,0.19180558621883392,-0.06817033886909485,-0.2079523652791977,0.956723153591156,1.0137717723846436,-5.398270606994629,9.05333423614502,-0.6788001656532288,-49.05928039550781,53.017181396484375
1781545727212434,680545972,0.18460771441459656,-0.06208861619234085,-0.20827580988407135,0.9584811925888062,1.0272761583328247,-5.450028419494629,9.667860984802246,1.531540036201477,-50.5861930847168,39.677391052246094
1781545727214401,680562639,0.17829486727714539,-0.05708938091993332,-0.20789062976837158,0.9600694179534912,0.7601223587989807,-5.655218124389648,9.678130149841309,4.968653202056885,-41.207096099853516,35.487709045410156
1781545727241819,680579306,0.1726299226284027,-0.052508335560560226,-0.20684432983398438,0.9615909457206726,1.239210844039917,-5.961461544036865,9.473448753356934,8.986978530883789,-36.67941665649414,31.99409294128418
1781545727271588,680595973,0.16860276460647583,-0.04852009564638138,-0.20521941781044006,0.9628623723983765,1.973523736000061,-6.267018795013428,9.728569984436035,12.354446411132812,-29.650442123413086,21.930803298950195
1781545727273338,680612640,0.16703420877456665,-0.04541327431797981,-0.20328110456466675,0.9636980891227722,2.3487331867218018,-6.06398868560791,9.900106430053711,13.624056816101074,-19.829254150390625,6.507246494293213
1781545727301762,680629307,0.16762900352478027,-0.04446591064333916,-0.20036238431930542,0.9642501473426819,2.2316417694091797,-5.453851699829102,9.864888191223145,17.928327560424805,-1.274656057357788,-4.819214820861816
1781545727303505,680645974,0.16906683146953583,-0.04628317058086395,-0.19585026800632477,0.9648404121398926,1.6185111999511719,-4.723151206970215,9.51556396484375,25.622333526611328,20.048500061035156,-6.0631513595581055
1781545727331705,680662641,0.17059238255023956,-0.05072735249996185,-0.18951794505119324,0.9656127691268921,0.67044597864151,-4.057133674621582,9.220312118530273,34.92120361328125,39.657814025878906,-2.3121838569641113
1781545727334558,680679308,0.17157728970050812,-0.05506303906440735,-0.1829177737236023,0.9664731621742249,-0.2526048421859741,-3.3901727199554443,8.737637519836426,36.754615783691406,38.51951599121094,1.3256306648254395
1781545727362214,680695975,0.17167524993419647,-0.056942105293273926,-0.1774979680776596,0.9673570394515991,-1.1092026233673096,-2.8290321826934814,8.7554931640625,31.503271102905273,19.67629051208496,3.709012508392334
1781545727364241,680712642,0.1710536628961563,-0.05554252490401268,-0.1738118976354599,0.9682174921035767,-1.7192153930664062,-2.7688488960266113,9.06210708618164,23.528764724731445,-5.0497589111328125,3.7806921005249023
1781545727391942,680729309,0.17010529339313507,-0.05223358795046806,-0.17233584821224213,0.9688324928283691,-1.8129160404205322,-2.919975519180298,9.387121200561523,10.640592575073242,-20.66278839111328,2.535911798477173
1781545727422964,680745976,0.16873176395893097,-0.04943916201591492,-0.17248007655143738,0.9691934585571289,-1.3381205797195435,-3.3047006130218506,9.85295295715332,-1.211495041847229,-19.551403045654297,5.095621109008789
1781545727425981,680762643,0.1669768989086151,-0.047209251672029495,-0.17290353775024414,0.9695330262184143,-0.5516427159309387,-3.657557487487793,10.701123237609863,-3.8833253383636475,-16.565034866333008,8.1851167678833
1781545727452966,680779310,0.16455861926078796,-0.04577884078025818,-0.1721063107252121,0.9701566696166992,-0.39052408933639526,-4.277990341186523,11.171756744384766,3.4565720558166504,-10.716045379638672,14.278424263000488
1781545727454830,680795977,0.1620033234357834,-0.045548729598522186,-0.16975633800029755,0.9710112810134888,-0.034765999764204025,-4.416319847106934,11.250836372375488,12.68733024597168,-1.1893277168273926,17.36558723449707
1781545727483035,680812644,0.16017663478851318,-0.04632139578461647,-0.16629962623119354,0.9718756079673767,0.2931157350540161,-4.333016872406006,10.736844062805176,19.201900482177734,7.584224224090576,14.02916145324707
1781545727484606,680829311,0.15892764925956726,-0.047635387629270554,-0.1620989292860031,0.9727264642715454,0.23437821865081787,-3.8874735832214355,10.110164642333984,23.749526977539062,12.687230110168457,11.011475563049316
1781545727512664,680845978,0.15845263004302979,-0.04853607341647148,-0.15783503651618958,0.97346031665802,0.227824866771698,-3.5278539657592773,9.443382263183594,24.749828338623047,10.895241737365723,5.266196250915527
1781545727514645,680862645,0.1585429459810257,-0.04819055646657944,-0.15416361391544342,0.9740509986877441,0.2337510585784912,-3.273479700088501,9.212427139282227,22.177350997924805,2.570655345916748,-0.2213069200515747
1781545727542293,680879312,0.15901939570903778,-0.046518512070178986,-0.15130633115768433,0.9745025634765625,0.12829597294330597,-3.0593342781066895,8.948502540588379,18.152698516845703,-6.743602275848389,-4.635981559753418
1781545727572612,680895979,0.1598789244890213,-0.04476713389158249,-0.14915885031223297,0.9747750163078308,0.012337794527411461,-2.9840476512908936,8.972387313842773,13.420433044433594,-7.59477424621582,-7.707700252532959
1781545727574063,680912646,0.16135412454605103,-0.042683232575654984,-0.14754001796245575,0.9748718738555908,-0.10652536898851395,-3.040665626525879,9.253357887268066,10.252167701721191,-9.718636512756348,-12.532423973083496
1781545727602999,680929313,0.16343717277050018,-0.04075296223163605,-0.14624406397342682,0.974802553653717,0.00546412356197834,-2.9400856494903564,9.563677787780762,7.926738739013672,-8.383356094360352,-16.725540161132812
1781545727605023,680945980,0.1657739281654358,-0.038414135575294495,-0.14505262672901154,0.97468101978302,-0.08928490430116653,-2.756944179534912,9.712790489196777,7.702515602111816,-10.969401359558105,-18.925437927246094
1781545727633665,680962647,0.1679711788892746,-0.03593903407454491,-0.14394329488277435,0.974563717842102,-0.2731529176235199,-2.678570508956909,9.765132904052734,7.2721052169799805,-12.116289138793945,-18.14738655090332
1781545727635782,680979314,0.16992492973804474,-0.03392409160733223,-0.14291070401668549,0.9744492769241333,-0.5224494934082031,-2.6196510791778564,9.745275497436523,6.166411876678467,-9.36579418182373,-16.075010299682617
1781545727664129,680995981,0.1714296191930771,-0.03255676478147507,-0.14217489957809448,0.9743399024009705,-0.7457610964775085,-2.569835662841797,9.646523475646973,3.318453788757324,-5.818632125854492,-12.494778633117676
1781545727665202,681012648,0.17247352004051208,-0.03186611086130142,-0.14167195558547974,0.9742516875267029,-0.7613378167152405,-2.576497793197632,9.62417984008789,0.8763579726219177,-2.020317792892456,-8.775503158569336
1781545727692224,681029315,0.17311981320381165,-0.031633712351322174,-0.14112962782382965,0.9742233753204346,-0.4992603659629822,-2.570152521133423,9.75041675567627,0.5657396912574768,0.6908449530601501,-5.5894341468811035
1781545727723124,681045982,0.17367146909236908,-0.031019922345876694,-0.1406959444284439,0.9742077589035034,-0.3163284361362457,-2.657029151916504,9.767029762268066,0.2817845344543457,-2.0903549194335938,-5.3341779708862305
1781545727725358,681062649,0.17436635494232178,-0.029963746666908264,-0.14044253528118134,0.9741532206535339,-0.13631516695022583,-2.714073896408081,9.709881782531738,-0.4056156277656555,-5.124538421630859,-6.804860591888428
1781545727754748,681079316,0.17521943151950836,-0.0281076580286026,-0.14068253338336945,0.9740208983421326,-0.2256944179534912,-2.687138795852661,9.741061210632324,-2.7956409454345703,-10.905945777893066,-8.833365440368652
1781545727756146,681095983,0.17612196505069733,-0.025390226393938065,-0.14157643914222717,0.9738031029701233,-0.2296445369720459,-2.8643484115600586,10.046191215515137,-6.211601257324219,-17.400447845458984,-10.22545051574707
1781545727785329,681112650,0.17700862884521484,-0.022465968504548073,-0.14289774000644684,0.9735210537910461,0.15784549713134766,-2.844860553741455,10.079203605651855,-8.889250755310059,-19.308988571166992,-10.473103523254395
1781545727786195,681129317,0.1779274344444275,-0.01980188488960266,-0.14429853856563568,0.9732047915458679,0.39121145009994507,-2.782867193222046,9.940576553344727,-9.768649101257324,-17.627639770507812,-10.486241340637207
1781545727813717,681145984,0.1788095235824585,-0.017589237540960312,-0.145594984292984,0.9728925824165344,0.3495882451534271,-2.781231164932251,9.785857200622559,-9.625356674194336,-14.515504837036133,-9.772923469543457
1781545727816357,681162651,0.17959712445735931,-0.01575648970901966,-0.14659592509269714,0.9726285934448242,0.3228719234466553,-2.9321770668029785,9.817986488342285,-8.080545425415039,-11.711506843566895,-8.66473388671875
1781545727843308,681179318,0.18028020858764648,-0.014061314053833485,-0.14704512059688568,0.9724603891372681,0.29814451932907104,-2.9835004806518555,9.835440635681152,-4.475949287414551,-10.226861953735352,-7.648327350616455
1781545727872286,681195985,0.18101190030574799,-0.01270353328436613,-0.14709928631782532,0.9723348021507263,0.41043806076049805,-2.826780080795288,9.546941757202148,-2.2057151794433594,-7.438429355621338,-7.539689540863037
1781545727874039,681212652,0.18167123198509216,-0.012024130672216415,-0.14684434235095978,0.9722590446472168,0.31870266795158386,-2.7444093227386475,9.529590606689453,-0.940062940120697,-2.5964362621307373,-6.279388904571533
1781545727903304,681229319,0.18223001062870026,-0.011944085359573364,-0.14624623954296112,0.9722456336021423,0.33702346682548523,-2.7503821849823,9.710033416748047,0.6595207452774048,1.7303622961044312,-4.895073890686035
1781545727904969,681245986,0.18275567889213562,-0.011840371415019035,-0.1453651785850525,0.9722803235054016,0.36642709374427795,-2.781266689300537,9.853325843811035,2.624988079071045,1.889391303062439,-4.619609355926514
1781545727933116,681262653,0.18344086408615112,-0.01153478678315878,-0.1445016711950302,0.972283661365509,0.3722790777683258,-2.766986131668091,9.88539981842041,2.742243528366089,0.678871214389801,-5.928022384643555
1781545727935152,681279320,0.1842517852783203,-0.010927729308605194,-0.14365720748901367,0.9722625017166138,0.3537628650665283,-2.809680938720703,10.067877769470215,2.979084014892578,-1.233981728553772,-7.101327419281006
1781545727962992,681295987,0.1851966679096222,-0.010349839925765991,-0.14270003139972687,0.9722301959991455,0.4078924357891083,-2.7086827754974365,10.092228889465332,3.6937551498413086,-0.7645008563995361,-7.974579811096191
1781545727964513,681312654,0.186118945479393,-0.009904582053422928,-0.1414577066898346,0.9722402691841125,0.40403425693511963,-2.5638139247894287,9.955824851989746,5.469945907592773,0.45872992277145386,-7.616809368133545
1781545727992237,681329321,0.1869242638349533,-0.009615265764296055,-0.14014451205730438,0.9722789525985718,0.22981521487236023,-2.501039505004883,9.771718978881836,5.762147903442383,1.4752854108810425,-6.642412185668945
1781545728033995,681345988,0.1875113546848297,-0.0098505187779665,-0.13889852166175842,0.9723424315452576,0.11485723406076431,-2.4766578674316406,9.6109037399292,4.646368503570557,4.682149410247803,-4.656402111053467
1781545728037273,681362655,0.18804733455181122,-0.009727048687636852,-0.13800176978111267,0.9723678231239319,0.048333317041397095,-2.439880132675171,9.500551223754883,2.733035087585449,1.78498113155365,-4.728911399841309
1781545728052306,681379322,0.18865136802196503,-0.0095745287835598,-0.13752080500125885,0.9723204374313354,0.09057878702878952,-2.4254775047302246,9.455832481384277,-0.07501961290836334,1.1201268434524536,-5.336791038513184
1781545728053934,681395989,0.189142644405365,-0.009542242623865604,-0.13733702898025513,0.9722513556480408,0.2118261307477951,-2.402052402496338,9.453780174255371,-2.2465415000915527,1.4310392141342163,-4.517786502838135
1781545728084225,681412656,0.18946190178394318,-0.009496060200035572,-0.1375470608472824,0.9721598625183105,0.3133265972137451,-2.3633370399475098,9.598684310913086,-4.894421100616455,0.6639260649681091,-3.43599534034729
1781545728085400,681429323,0.18955782055854797,-0.009426454082131386,-0.13798409700393677,0.972079873085022,0.3537743389606476,-2.4698925018310547,9.717732429504395,-6.386514186859131,-0.0010629271855577826,-1.9677984714508057
1781545728113154,681445990,0.18957221508026123,-0.009410539641976357,-0.1384803056716919,0.9720067381858826,0.3124067783355713,-2.6211442947387695,9.825485229492188,-6.851820945739746,0.2019241601228714,-1.3642863035202026
1781545728114927,681462657,0.1897118240594864,-0.009071475826203823,-0.13897471129894257,0.9719120860099792,0.30982983112335205,-2.6623592376708984,9.982433319091797,-6.431784629821777,-1.8358159065246582,-2.538449287414551
1781545728141808,681479324,0.19010135531425476,-0.007971066981554031,-0.1393904685974121,0.9717861413955688,0.2716577649116516,-2.7216598987579346,9.982953071594238,-4.928063869476318,-6.580352306365967,-4.969671726226807
1781545728172482,681495991,0.1905660331249237,-0.006825402844697237,-0.13963767886161804,0.9716683626174927,0.2610973119735718,-2.6801867485046387,9.931647300720215,-3.7313997745513916,-6.593350887298584,-5.495142459869385
1781545728173588,681512658,0.19090205430984497,-0.006310237105935812,-0.13967812061309814,0.9716001749038696,0.31583109498023987,-2.6199100017547607,9.811657905578613,-3.135571002960205,-2.2378969192504883,-3.9572651386260986
1781545728201740,681529325,0.19098855555057526,-0.0065841153264045715,-0.13949745893478394,0.9716072082519531,0.45238736271858215,-2.5901882648468018,9.753080368041992,-2.632793664932251,3.0788707733154297,-1.4217994213104248
1781545728203525,681545992,0.19099195301532745,-0.007056206930428743,-0.13924039900302887,0.9716402292251587,0.4673152267932892,-2.544436454772949,9.78380298614502,-2.3628485202789307,4.421501159667969,-0.6426354646682739
1781545728231676,681562659,0.19105760753154755,-0.007267359644174576,-0.1389714479446411,0.9716641306877136,0.41637882590293884,-2.574920177459717,9.828752517700195,-1.9465525150299072,2.7544984817504883,-1.3201171159744263
1781545728233569,681579326,0.19129854440689087,-0.006690899841487408,-0.13867399096488953,0.9716633558273315,0.33308902382850647,-2.6119658946990967,9.906649589538574,-0.7375561594963074,-2.3020570278167725,-3.2749297618865967
1781545728261699,681595993,0.19169411063194275,-0.00547376461327076,-0.13834722340106964,0.9716395139694214,0.2598986029624939,-2.682356834411621,9.9575777053833,0.2853831648826599,-6.397055149078369,-4.946786403656006
1781545728263517,681612660,0.19203464686870575,-0.0047276695258915424,-0.13781553506851196,0.9716516733169556,0.34375354647636414,-2.61564302444458,9.790307998657227,1.0650339126586914,-3.035822868347168,-4.076505184173584
1781545728291833,681629327,0.19223752617835999,-0.004635002464056015,-0.13728107511997223,0.971687912940979,0.4527837038040161,-2.5337138175964355,9.584247589111328,0.23869115114212036,1.2009730339050293,-2.509967803955078
1781545728321800,681645994,0.1923343390226364,-0.004995876923203468,-0.1369500607252121,0.9717135429382324,0.540477991104126,-2.4346983432769775,9.448101997375488,-1.7337747812271118,3.860685110092163,-1.3915507793426514
1781545728323485,681662661,0.19245412945747375,-0.005372637417167425,-0.13700562715530396,0.9716800451278687,0.4928953945636749,-2.469357967376709,9.469099044799805,-4.39285945892334,3.4791715145111084,-1.6220906972885132
1781545728352084,681679328,0.1927187293767929,-0.005282045342028141,-0.1372821033000946,0.9715889692306519,0.43207937479019165,-2.552825450897217,9.776164054870605,-5.299164295196533,0.2027180939912796,-3.114734411239624
1781545728353429,681695995,0.19309739768505096,-0.0047512659803032875,-0.13744036853313446,0.971494197845459,0.3819994032382965,-2.6632542610168457,10.038455963134766,-3.9267983436584473,-2.4741742610931396,-4.294277191162109
1781545728381792,681712662,0.1934301108121872,-0.0043983315117657185,-0.13719642162322998,0.9714640378952026,0.4015154242515564,-2.668391704559326,10.156074523925781,-1.417202115058899,-0.7989370822906494,-3.716416120529175
1781545728383812,681729329,0.19367846846580505,-0.004553305916488171,-0.13656261563301086,0.9715032577514648,0.5176147818565369,-2.6130871772766113,9.945446014404297,0.5739870667457581,3.029144048690796,-2.5732572078704834
1781545728411823,681745996,0.19393227994441986,-0.005271431524306536,-0.13587695360183716,0.9715450406074524,0.5730007886886597,-2.4525954723358154,9.630852699279785,0.17268723249435425,6.863583087921143,-2.077984094619751
1781545728413139,681762663,0.19419023394584656,-0.005672601982951164,-0.13551835715770721,0.9715414643287659,0.4504885971546173,-2.388029098510742,9.430937767028809,-1.6323615312576294,4.316617488861084,-2.474494218826294
1781545728441823,681779330,0.19452627003192902,-0.005758039653301239,-0.13559654355049133,0.9714629054069519,0.2820438742637634,-2.40655255317688,9.571321487426758,-4.196103096008301,1.6993961334228516,-3.4036078453063965
1781545728472100,681795997,0.1948215216398239,-0.005429457873106003,-0.13584807515144348,0.9713703989982605,0.2994897663593292,-2.481239080429077,9.752622604370117,-4.81511116027832,-1.3365987539291382,-3.5461297035217285
1781545728473425,681812664,0.195125013589859,-0.005188398994505405,-0.136088564991951,0.9712771773338318,0.3188505172729492,-2.5757882595062256,9.900602340698242,-4.860265254974365,-0.7311528921127319,-3.5207083225250244
1781545728501712,681829331,0.19530518352985382,-0.004750136286020279,-0.13609935343265533,0.9712415933609009,0.37602972984313965,-2.639946460723877,9.988760948181152,-3.0128085613250732,-1.8586751222610474,-2.7955620288848877
1781545728503710,681845998,0.1954445093870163,-0.004549094475805759,-0.13588356971740723,0.971244752407074,0.44606953859329224,-2.616777181625366,9.887877464294434,-1.7834635972976685,-0.012166032567620277,-2.2427120208740234
1781545728531624,681862665,0.19559544324874878,-0.004640279337763786,-0.13557519018650055,0.9712570905685425,0.4930567145347595,-2.5160796642303467,9.73681926727295,-1.5493377447128296,2.07499361038208,-2.0350825786590576
1781545728533209,681879332,0.1957552433013916,-0.004970814101397991,-0.13532444834709167,0.9712583422660828,0.3392883539199829,-2.4902822971343994,9.672072410583496,-2.266378402709961,3.6031246185302734,-1.8877586126327515
1781545728561696,681895999,0.19585517048835754,-0.005121641792356968,-0.1352202594280243,0.9712518453598022,0.2823294401168823,-2.4665889739990234,9.698790550231934,-3.0125021934509277,2.148169755935669,-1.6670284271240234
1781545728563157,681912666,0.19597114622592926,-0.005032043904066086,-0.13524949550628662,0.9712247848510742,0.273443341255188,-2.4847166538238525,9.765974044799805,-3.5991477966308594,0.3782675564289093,-2.034391164779663
1781545728591884,681929333,0.1960851103067398,-0.0049287243746221066,-0.13530442118644714,0.9711946845054626,0.28270167112350464,-2.5251059532165527,9.83071517944336,-3.7557566165924072,0.24876976013183594,-2.040384531021118
1781545728621676,681946000,0.1961844116449356,-0.0043916525319218636,-0.13529878854751587,0.9711779356002808,0.37813735008239746,-2.5465099811553955,9.920854568481445,-2.7547097206115723,-2.5826950073242188,-2.322687864303589
1781545728623422,681962667,0.19628863036632538,-0.004095949232578278,-0.13520674407482147,0.9711709022521973,0.436288982629776,-2.5129172801971436,9.820425987243652,-2.4947028160095215,-0.8510075211524963,-2.114161729812622
1781545728651666,681979334,0.19635967910289764,-0.0041422294452786446,-0.13510653376579285,0.9711703658103943,0.479032963514328,-2.4712469577789307,9.685352325439453,-2.897244930267334,1.4122651815414429,-1.5667033195495605
1781545728653160,681996001,0.19640488922595978,-0.0045296186581254005,-0.1351604014635086,0.9711520671844482,0.4483931064605713,-2.445822238922119,9.612981796264648,-4.404283046722412,3.4574649333953857,-1.1102209091186523
1781545728681793,682012668,0.19653430581092834,-0.004875536076724529,-0.1354542076587677,0.9710832834243774,0.33246737718582153,-2.4950332641601562,9.680827140808105,-5.994755744934082,2.936156988143921,-1.785768985748291
1781545728683303,682029335,0.1966543197631836,-0.0050787245854735374,-0.13580727577209473,0.9710087180137634,0.28686290979385376,-2.537665605545044,9.839617729187012,-6.203498363494873,1.8928362131118774,-1.8652961254119873
1781545728711747,682046002,0.19666621088981628,-0.005158788990229368,-0.13601794838905334,0.9709762930870056,0.3669719099998474,-2.5614469051361084,9.879960060119629,-5.051401138305664,1.1595830917358398,-1.196740746498108
1781545728713471,682062669,0.19666089117527008,-0.004892380908131599,-0.13607266545295715,0.9709710478782654,0.4210963547229767,-2.6184587478637695,9.912986755371094,-3.517302989959717,-0.9605275988578796,-1.3624036312103271
1781545728741829,682079336,0.19670778512954712,-0.004644277039915323,-0.1359620839357376,0.970978319644928,0.404371440410614,-2.6697707176208496,9.853680610656738,-2.4253945350646973,-0.566975474357605,-1.672816514968872
1781545728772023,682096003,0.19671271741390228,-0.004838987719267607,-0.13576270639896393,0.9710042476654053,0.46151551604270935,-2.5553295612335205,9.756863594055176,-2.4151880741119385,2.468852996826172,-0.9515118598937988
1781545728773748,682112670,0.19673413038253784,-0.0049854726530611515,-0.13561618328094482,0.9710195660591125,0.4375624358654022,-2.4948461055755615,9.653742790222168,-2.7119882106781006,2.0898873805999756,-1.1225022077560425
1781545728801853,682129337,0.1968587338924408,-0.005189162213355303,-0.1356092244386673,0.970994234085083,0.36298415064811707,-2.4867513179779053,9.733101844787598,-3.7557055950164795,2.38031005859375,-1.8177207708358765
1781545728803746,682146004,0.19693464040756226,-0.005081660114228725,-0.1356518417596817,0.9709734320640564,0.27974873781204224,-2.507643938064575,9.873108863830566,-3.6636533737182617,0.1890409290790558,-1.7777389287948608
1781545728831747,682162671,0.19694358110427856,-0.0051583037711679935,-0.1356208622455597,0.9709756374359131,0.3586350083351135,-2.5194733142852783,9.804396629333496,-3.403146982192993,1.4532582759857178,-1.1294689178466797
1781545728834298,682179338,0.1969299465417862,-0.0052882712334394455,-0.1355656087398529,0.9709852933883667,0.38592103123664856,-2.5236103534698486,9.741013526916504,-3.3073172569274902,1.8193024396896362,-0.918241024017334
1781545728861710,682196005,0.19697801768779755,-0.0053072902373969555,-0.1356087177991867,0.9709694981575012,0.3849759101867676,-2.531554937362671,9.73140811920166,-3.8356683254241943,1.0033326148986816,-1.4711039066314697
1781545728863344,682212672,0.1970108598470688,-0.005522599909454584,-0.13567820191383362,0.9709519147872925,0.3341257572174072,-2.501965045928955,9.718462944030762,-4.2800612449646,2.262824296951294,-1.1861497163772583
1781545728891810,682229339,0.19697612524032593,-0.0057770549319684505,-0.1357683688402176,0.9709449410438538,0.34280914068222046,-2.5202219486236572,9.749739646911621,-4.4643707275390625,2.432342290878296,-0.6921448707580566
1781545728921713,682246006,0.1969793289899826,-0.005866695661097765,-0.13587425649166107,0.9709288477897644,0.3479992747306824,-2.5591533184051514,9.816898345947266,-4.353224754333496,1.3454670906066895,-1.109785556793213
1781545728923451,682262673,0.19700899720191956,-0.005857085809111595,-0.1359836310148239,0.9709076881408691,0.3609131872653961,-2.565924882888794,9.790788650512695,-4.245945930480957,0.702140212059021,-1.3897068500518799
1781545728951671,682279340,0.19703394174575806,-0.005944138392806053,-0.13606417179107666,0.9708908796310425,0.3761828541755676,-2.5453743934631348,9.81166934967041,-4.180389881134033,1.3806207180023193,-1.2563799619674683
1781545728953382,682296007,0.19708877801895142,-0.005824967287480831,-0.13611619174480438,0.9708729982376099,0.3840976357460022,-2.5783448219299316,9.81909465789795,-3.7109861373901367,0.06986505538225174,-1.6509820222854614
1781545728981697,682312674,0.19709426164627075,-0.005856805015355349,-0.1360807567834854,0.9708766937255859,0.3608996868133545,-2.5820512771606445,9.801855087280273,-3.313591957092285,1.1484287977218628,-1.1482174396514893
1781545728983307,682329341,0.19709551334381104,-0.00588169926777482,-0.13602027297019958,0.9708846807479858,0.3917909264564514,-2.5457921028137207,9.745765686035156,-3.1332273483276367,1.1310632228851318,-1.1215288639068604
1781545729011871,682346008,0.1970990151166916,-0.006036711391061544,-0.1359802782535553,0.9708886742591858,0.37167853116989136,-2.5346572399139404,9.74193000793457,-3.4505298137664795,1.9732214212417603,-1.022087574005127
1781545729013430,682362675,0.19713430106639862,-0.006138451863080263,-0.1360035240650177,0.9708775877952576,0.33258774876594543,-2.5483193397521973,9.765508651733398,-3.8130393028259277,1.5609853267669678,-1.3031871318817139
1781545729041800,682379342,0.19718049466609955,-0.006304769776761532,-0.13602237403392792,0.9708645939826965,0.38497674465179443,-2.542802572250366,9.785466194152832,-3.872845411300659,2.007824659347534,-1.3232674598693848
1781545729071610,682396009,0.1971985548734665,-0.00629437668249011,-0.1359860599040985,0.9708659648895264,0.3536337912082672,-2.5872411727905273,9.840654373168945,-3.2530436515808105,0.8753332495689392,-1.2785732746124268
1781545729073291,682412676,0.19726882874965668,-0.006239878945052624,-0.13593250513076782,0.9708595275878906,0.3583443760871887,-2.577021837234497,9.817946434020996,-3.0838329792022705,0.6527973413467407,-1.6785411834716797
1781545729101737,682429343,0.19727183878421783,-0.006440077442675829,-0.13578620553016663,0.9708781838417053,0.36978235840797424,-2.541755437850952,9.751320838928223,-2.789440870285034,2.4137988090515137,-0.9544829726219177
1781545729103580,682446010,0.1973511278629303,-0.006530276965349913,-0.13577131927013397,0.9708635807037354,0.357405424118042,-2.5178802013397217,9.683069229125977,-3.545015573501587,1.5738683938980103,-1.617275595664978
1781545729132107,682462677,0.1973963975906372,-0.006713555194437504,-0.13585135340690613,0.9708418846130371,0.33730414509773254,-2.4995076656341553,9.70338249206543,-4.313293933868408,2.0329246520996094,-1.3132271766662598
1781545729134103,682479344,0.19741244614124298,-0.006837498862296343,-0.13594810664653778,0.9708242416381836,0.3314302861690521,-2.515634059906006,9.762919425964355,-4.342787742614746,1.5870848894119263,-1.1739838123321533
1781545729162153,682496011,0.19746489822864532,-0.006733485497534275,-0.13606217503547668,0.9707983732223511,0.3097698390483856,-2.5570337772369385,9.858837127685547,-4.155314922332764,0.07484671473503113,-1.640506386756897
1781545729163807,682512678,0.19752442836761475,-0.006540366448462009,-0.13609157502651215,0.9707833528518677,0.35563549399375916,-2.596095323562622,9.859692573547363,-3.458726406097412,-0.3993147909641266,-1.7541115283966064
1781545729191905,682529345,0.1975286602973938,-0.006543696392327547,-0.13604198396205902,0.9707894325256348,0.38340628147125244,-2.5913805961608887,9.770956993103027,-3.1818654537200928,0.9660149216651917,-1.1724597215652466
1781545729221701,682546012,0.19750837981700897,-0.0066185398027300835,-0.13599789142608643,0.9707992672920227,0.3633890151977539,-2.571854591369629,9.737732887268066,-3.3130669593811035,1.4114456176757812,-0.9315083622932434
1781545729223995,682562679,0.1975184977054596,-0.006802896503359079,-0.13599899411201477,0.970795750617981,0.29917970299720764,-2.5449330806732178,9.747700691223145,-3.7744667530059814,2.108687400817871,-1.0567288398742676
1781545729252203,682579346,0.19749365746974945,-0.007110104896128178,-0.13606402277946472,0.9707895517349243,0.27134984731674194,-2.5143258571624756,9.725863456726074,-4.3716139793396,2.8083367347717285,-0.7122892737388611
1781545729253628,682596013,0.19745971262454987,-0.007430193945765495,-0.13620483875274658,0.9707742929458618,0.3381437659263611,-2.479727268218994,9.704521179199219,-4.904077053070068,2.781942844390869,-0.653584897518158
1781545729282089,682612680,0.19746220111846924,-0.007345975376665592,-0.13640345633029938,0.9707465767860413,0.3406140208244324,-2.5396854877471924,9.850406646728516,-4.751821994781494,0.04023114964365959,-1.3013173341751099
1781545729283939,682629347,0.1974184662103653,-0.007167533040046692,-0.13655397295951843,0.9707355499267578,0.3693206310272217,-2.580605983734131,9.869600296020508,-4.290140151977539,-0.5679872035980225,-1.0554609298706055
1781545729311718,682646014,0.1973458230495453,-0.007321997545659542,-0.1365668773651123,0.9707473516464233,0.4162467420101166,-2.6031596660614014,9.8013334274292,-3.8035497665405273,1.811144471168518,-0.5157117247581482
1781545729313765,682662681,0.19737423956394196,-0.007472156547009945,-0.13657262921333313,0.9707396030426025,0.3297402262687683,-2.6419148445129395,9.77031135559082,-3.763568639755249,1.887892723083496,-1.2226094007492065
1781545729342139,682679348,0.19743923842906952,-0.007539828307926655,-0.13657766580581665,0.9707252979278564,0.285753458738327,-2.6005284786224365,9.798567771911621,-3.6507954597473145,1.3715662956237793,-1.5510666370391846
1781545729372049,682696015,0.19740286469459534,-0.007465285714715719,-0.13655459880828857,0.9707363843917847,0.24429525434970856,-2.56913685798645,9.769322395324707,-3.251148223876953,0.36332258582115173,-0.9705292582511902
1781545729373332,682712682,0.19735226035118103,-0.007496306672692299,-0.13658569753170013,0.9707421064376831,0.266902893781662,-2.5368733406066895,9.722694396972656,-3.76204514503479,0.9797564148902893,-0.7849140763282776
1781545729401680,682729349,0.19729949533939362,-0.007408043835312128,-0.1367165744304657,0.9707350730895996,0.31068894267082214,-2.5036113262176514,9.697172164916992,-4.278486251831055,0.045917171984910965,-0.9095710515975952
1781545729403460,682746016,0.19725751876831055,-0.007380807306617498,-0.13695523142814636,0.970710277557373,0.3407815992832184,-2.501709222793579,9.725205421447754,-5.097375869750977,0.3176039159297943,-0.9524595141410828
1781545729431665,682762683,0.1971910297870636,-0.0073657771572470665,-0.1371750682592392,0.9706926941871643,0.40565577149391174,-2.5409390926361084,9.820043563842773,-4.983207702636719,0.4010500907897949,-0.7688547968864441
1781545729433644,682779350,0.19715619087219238,-0.0072966525331139565,-0.1373327225446701,0.9706780910491943,0.42963212728500366,-2.6120662689208984,9.852675437927246,-4.491021156311035,0.15311913192272186,-1.0263394117355347
1781545729461860,682796017,0.19718438386917114,-0.007091353181749582,-0.13735871016979218,0.970670223236084,0.39819926023483276,-2.6739320755004883,9.882516860961914,-3.4181559085845947,-0.5182217955589294,-1.5576363801956177
1781545729463106,682812684,0.19726349413394928,-0.006924421992152929,-0.13724516332149506,0.9706714153289795,0.351821631193161,-2.6789138317108154,9.869368553161621,-2.528127431869507,-0.02552305907011032,-1.8438072204589844
1781545729491881,682829351,0.1973191350698471,-0.007008932530879974,-0.1370178610086441,0.9706916213035583,0.30675235390663147,-2.6273319721221924,9.78221321105957,-2.09298038482666,1.7828744649887085,-1.417458176612854
1781545729521741,682846018,0.19733569025993347,-0.007140381261706352,-0.13678975403308868,0.9707193970680237,0.30657267570495605,-2.560295581817627,9.684429168701172,-2.1456141471862793,2.0588574409484863,-1.103459119796753
1781545729523152,682862685,0.19741332530975342,-0.007239801809191704,-0.1367112249135971,0.9707139730453491,0.2834576368331909,-2.520737409591675,9.695053100585938,-3.128668785095215,1.6997039318084717,-1.5906386375427246
1781545729551692,682879352,0.19745619595050812,-0.007231169380247593,-0.13671483099460602,0.9707047939300537,0.27928897738456726,-2.5235564708709717,9.794983863830566,-3.5360515117645264,0.8336359262466431,-1.4728713035583496
1781545729553467,682896019,0.1974613070487976,-0.007264153100550175,-0.13670098781585693,0.9707054495811462,0.33729588985443115,-2.5336720943450928,9.797520637512207,-3.4688949584960938,1.0984711647033691,-1.1672861576080322
1781545729581706,682912686,0.1974509358406067,-0.007128692232072353,-0.1366862952709198,0.9707105755805969,0.35467860102653503,-2.573117733001709,9.800068855285645,-3.2313108444213867,-0.03963564708828926,-1.219484567642212
1781545729583515,682929353,0.19747698307037354,-0.0070612262934446335,-0.1366642564535141,0.970708966255188,0.37299540638923645,-2.5900073051452637,9.786273956298828,-3.279757499694824,0.4583200514316559,-1.405983567237854
1781545729611686,682946020,0.19747820496559143,-0.00707867369055748,-0.1366145759820938,0.9707155823707581,0.2922598719596863,-2.6124954223632812,9.776586532592773,-3.20443058013916,1.0370646715164185,-1.144836664199829
1781545729613514,682962687,0.19749976694583893,-0.00704860407859087,-0.13653656840324402,0.9707223176956177,0.30263498425483704,-2.595252752304077,9.789546012878418,-2.9493277072906494,0.777595043182373,-1.3300930261611938
1781545729642200,682979354,0.19749921560287476,-0.00702111329883337,-0.13644345104694366,0.9707356095314026,0.294204443693161,-2.571650743484497,9.7722806930542,-2.846736431121826,0.7925657629966736,-1.166031002998352
1781545729672063,682996021,0.19749251008033752,-0.007088423240929842,-0.13637588918209076,0.9707462191581726,0.35481229424476624,-2.5327467918395996,9.753690719604492,-3.14890193939209,1.384692907333374,-1.0458176136016846
1781545729673232,683012688,0.1974778175354004,-0.007039596326649189,-0.13636575639247894,0.9707508087158203,0.3392065167427063,-2.523071765899658,9.72280216217041,-3.3809919357299805,0.5230433344841003,-1.111501693725586
1781545729702019,683029355,0.19746007025241852,-0.007106904871761799,-0.13642513751983643,0.9707456231117249,0.31394320726394653,-2.52449107170105,9.752832412719727,-4.012357711791992,1.2018054723739624,-1.0020712614059448
1781545729703193,683046022,0.1974131166934967,-0.007077708374708891,-0.1365017294883728,0.9707447290420532,0.3356145918369293,-2.5220725536346436,9.796512603759766,-3.993903160095215,0.5051016211509705,-0.8900924921035767
1781545729731983,683062689,0.1973598450422287,-0.007124374154955149,-0.13657981157302856,0.9707441329956055,0.36712440848350525,-2.536496877670288,9.751344680786133,-4.107265472412109,1.0035632848739624,-0.7821990847587585
1781545729733558,683079356,0.19731241464614868,-0.007174246944487095,-0.13666817545890808,0.9707409143447876,0.36208656430244446,-2.558516502380371,9.744040489196777,-4.1829376220703125,1.0163055658340454,-0.8196319937705994
1781545729762030,683096023,0.19730263948440552,-0.007219130173325539,-0.13678760826587677,0.9707258343696594,0.297493577003479,-2.60095477104187,9.780133247375488,-4.392847537994385,0.9761065244674683,-1.0912164449691772
1781545729763198,683112690,0.19726452231407166,-0.007285245694220066,-0.13689129054546356,0.970718502998352,0.29693034291267395,-2.590088367462158,9.781145095825195,-4.310553550720215,1.111968994140625,-0.8756341934204102
1781545729791831,683129357,0.19723394513130188,-0.007448732387274504,-0.13702841103076935,0.9707040786743164,0.29350540041923523,-2.5945932865142822,9.714871406555176,-4.671975135803223,1.7227553129196167,-0.8444123268127441
1781545729821687,683146024,0.19719821214675903,-0.007636613212525845,-0.13719865679740906,0.9706859588623047,0.32121542096138,-2.571089267730713,9.723837852478027,-4.92989444732666,1.834336757659912,-0.7937248945236206
1781545729823483,683162691,0.19716337323188782,-0.007732799276709557,-0.13736845552921295,0.9706682562828064,0.3583337366580963,-2.576397180557251,9.788744926452637,-4.80208683013916,1.2233586311340332,-0.8862122297286987
1781545729851681,683179358,0.1971602886915207,-0.007813338190317154,-0.1374804526567459,0.9706523418426514,0.3649703860282898,-2.605881452560425,9.84990119934082,-4.392027854919434,1.2267651557922363,-1.1097599267959595
1781545729853693,683196025,0.19715456664562225,-0.007766512222588062,-0.13750538229942322,0.970650315284729,0.38823583722114563,-2.607546329498291,9.819353103637695,-3.625426769256592,0.4909891188144684,-1.1856377124786377
1781545729881785,683212692,0.19711895287036896,-0.007830505259335041,-0.13738444447517395,0.9706740975379944,0.3481600880622864,-2.636439561843872,9.811986923217773,-2.7789266109466553,1.3971407413482666,-0.8385213613510132
1781545729883154,683229359,0.19711154699325562,-0.007990716025233269,-0.13720670342445374,0.9706994891166687,0.3428785800933838,-2.628931760787964,9.799834251403809,-2.527909278869629,2.1435587406158447,-0.933967113494873
1781545729911999,683246026,0.19714628159999847,-0.008206742815673351,-0.13696250319480896,0.9707251787185669,0.2862558662891388,-2.634505033493042,9.815105438232422,-2.1553471088409424,2.641815662384033,-1.1416733264923096
1781545729913206,683262693,0.19716666638851166,-0.008572466671466827,-0.13669534027576447,0.970755398273468,0.27389684319496155,-2.580944538116455,9.75851821899414,-2.2028844356536865,3.661226987838745,-0.9127982258796692
1781545729941891,683279360,0.19717171788215637,-0.008877657353878021,-0.1364782154560089,0.9707823395729065,0.30357038974761963,-2.538867950439453,9.725115776062012,-2.4598307609558105,3.1761474609375,-0.8847394585609436
1781545729971694,683296027,0.19714704155921936,-0.009121423587203026,-0.13630171120166779,0.9708098769187927,0.2668135464191437,-2.5537476539611816,9.755158424377441,-2.6500184535980225,2.684986114501953,-0.7564327716827393
1781545729973655,683312694,0.19707803428173065,-0.009379368275403976,-0.13614462316036224,0.970843493938446,0.2317507266998291,-2.546560049057007,9.792131423950195,-2.7938337326049805,2.7066802978515625,-0.42459461092948914
1781545730001829,683329361,0.19693195819854736,-0.009676123037934303,-0.13605064153671265,0.9708833694458008,0.21373388171195984,-2.502971649169922,9.721832275390625,-3.2672202587127686,2.80635142326355,0.12828761339187622
1781545730003534,683346028,0.19675429165363312,-0.010003525763750076,-0.13606218993663788,0.9709144234657288,0.2330958992242813,-2.5164849758148193,9.696876525878906,-4.023691177368164,2.837432622909546,0.35163038969039917
1781545730031811,683362695,0.19661496579647064,-0.010229835286736488,-0.1361246258020401,0.9709314703941345,0.2590934634208679,-2.571568489074707,9.778563499450684,-4.235778331756592,2.1274874210357666,-0.011090300977230072
1781545730033432,683379362,0.19649142026901245,-0.010464280843734741,-0.13616959750652313,0.9709477424621582,0.2701510488986969,-2.6116080284118652,9.810266494750977,-4.129318714141846,2.21663236618042,-0.09652148187160492
1781545730061976,683396029,0.19631430506706238,-0.010927354916930199,-0.1361081749200821,0.9709869623184204,0.25980818271636963,-2.6214301586151123,9.802657127380371,-3.7241640090942383,3.8707776069641113,0.36569178104400635
1781545730063792,683412696,0.19610504806041718,-0.011400038376450539,-0.13601671159267426,0.9710366725921631,0.2246197611093521,-2.6108603477478027,9.7717866897583,-3.51945424079895,3.9193389415740967,0.7043172121047974
1781545730091835,683429363,0.19598187506198883,-0.011790270917117596,-0.13592302799224854,0.9710701107978821,0.17763856053352356,-2.6229052543640137,9.812457084655762,-3.4031848907470703,3.4573750495910645,0.01405496895313263
1781545730121686,683446030,0.19581855833530426,-0.012194879353046417,-0.13574355840682983,0.9711233377456665,0.18486127257347107,-2.607189655303955,9.758431434631348,-2.829230308532715,3.6165971755981445,0.3810338079929352
1781545730123592,683462697,0.19569088518619537,-0.012587392702698708,-0.13563093543052673,0.9711595773696899,0.26590147614479065,-2.564908027648926,9.797199249267578,-3.302398681640625,3.562643051147461,-0.2391969859600067
1781545730151813,683479364,0.19561471045017242,-0.012828302569687366,-0.1355496495962143,0.9711831212043762,0.22984528541564941,-2.555656671524048,9.735225677490234,-3.301771879196167,2.520718812942505,-0.5976979732513428
1781545730154146,683496031,0.1955213099718094,-0.01316146645694971,-0.13544665277004242,0.9712119698524475,0.19991914927959442,-2.5804946422576904,9.808382987976074,-3.2679247856140137,3.1225152015686035,-0.27905037999153137
1781545730181678,683512698,0.19545960426330566,-0.013468900695443153,-0.13533999025821686,0.971234917640686,0.2011488527059555,-2.5559310913085938,9.800837516784668,-3.205134868621826,2.9684927463531494,-0.45435652136802673
1781545730183832,683529365,0.19535350799560547,-0.013810909353196621,-0.13522562384605408,0.9712674617767334,0.2072419971227646,-2.5500924587249756,9.729158401489258,-3.2066078186035156,3.1959593296051025,-0.2318461537361145
1781545730211699,683546032,0.1952356994152069,-0.014075491577386856,-0.13516676425933838,0.9712954759597778,0.19562754034996033,-2.5517117977142334,9.765056610107422,-3.4968764781951904,2.645746946334839,-0.45538097620010376
1781545730214106,683562699,0.19524964690208435,-0.014275263994932175,-0.13515633344650269,0.9712912440299988,0.18662700057029724,-2.564406394958496,9.747925758361816,-3.6870126724243164,2.0927305221557617,-0.7030174136161804
1781545730242223,683579366,0.1952446550130844,-0.014626476913690567,-0.1351470947265625,0.9712882041931152,0.1598835289478302,-2.602656126022339,9.80854320526123,-3.9205496311187744,3.1467318534851074,-0.6905184984207153
1781545730271963,683596033,0.19516272842884064,-0.014910371974110603,-0.13508817553520203,0.9713085889816284,0.20379188656806946,-2.5913851261138916,9.827448844909668,-3.5275988578796387,2.8141510486602783,-0.7150425910949707
1781545730273525,683612700,0.19512811303138733,-0.01518500316888094,-0.13502399623394012,0.9713201522827148,0.1846531182527542,-2.56689190864563,9.763625144958496,-3.451323986053467,2.710777521133423,-0.6708990931510925
1781545730301738,683629367,0.19506070017814636,-0.015403203666210175,-0.13494178652763367,0.9713416695594788,0.18209770321846008,-2.5383687019348145,9.785463333129883,-3.2595877647399902,2.354428768157959,-0.607943058013916
1781545730303729,683646034,0.1950148344039917,-0.015512974001467228,-0.13487383723258972,0.9713586568832397,0.16358518600463867,-2.5615456104278564,9.815910339355469,-3.2035086154937744,1.6100592613220215,-0.7708910703659058
1781545730331657,683662701,0.19499023258686066,-0.01576395332813263,-0.13476118445396423,0.9713752269744873,0.13978369534015656,-2.5925920009613037,9.817937850952148,-3.0800933837890625,2.5968265533447266,-0.6299314498901367
1781545730333676,683679368,0.19494087994098663,-0.016042128205299377,-0.13464422523975372,0.971396803855896,0.16092748939990997,-2.5888946056365967,9.734658241271973,-3.1090357303619385,2.8254711627960205,-0.7037345170974731
1781545730361709,683696035,0.19491340219974518,-0.016433749347925186,-0.13461537659168243,0.97139972448349,0.0954042300581932,-2.58117938041687,9.691925048828125,-3.87029767036438,3.5101377964019775,-0.8727272748947144
1781545730363646,683712702,0.19488851726055145,-0.016758324578404427,-0.1346634328365326,0.9713925123214722,0.09366774559020996,-2.5674846172332764,9.753497123718262,-4.324256896972656,3.0248794555664062,-1.2346858978271484
1781545730391817,683729369,0.19486558437347412,-0.016980603337287903,-0.13471105694770813,0.971386730670929,0.0230818223208189,-2.565274238586426,9.817659378051758,-4.182899475097656,2.3449513912200928,-1.3517743349075317
1781545730421741,683746036,0.19483962655067444,-0.01719345711171627,-0.13475516438484192,0.9713820815086365,0.07959310710430145,-2.5313849449157715,9.79265308380127,-4.119137287139893,2.201533555984497,-1.0005731582641602
1781545730423737,683762703,0.1947019249200821,-0.017327070236206055,-0.13484959304332733,0.9713940024375916,0.13958799839019775,-2.512740135192871,9.694992065429688,-4.372318744659424,1.5773262977600098,-0.6360402703285217
1781545730451736,683779370,0.1948557198047638,-0.017308959737420082,-0.13511328399181366,0.971327006816864,0.11898693442344666,-2.5454373359680176,9.666031837463379,-5.205564498901367,0.2019241601228714,-1.1472827196121216
1781545730453676,683796037,0.19495034217834473,-0.017197467386722565,-0.13546444475650787,0.9712610244750977,0.10325044393539429,-2.611171007156372,9.746614456176758,-5.740575313568115,-0.37748003005981445,-1.736618161201477
1781545730482274,683812704,0.19499783217906952,-0.017095953226089478,-0.1357218325138092,0.9712173938751221,0.04491601511836052,-2.7112927436828613,9.894204139709473,-5.134399890899658,-0.1620771735906601,-1.660112977027893
1781545730483537,683829371,0.19493530690670013,-0.01717635802924633,-0.1357499212026596,0.9712246060371399,0.09309276193380356,-2.725036144256592,9.91534423828125,-3.839407444000244,1.3390446901321411,-1.020947813987732
1781545730512399,683846038,0.19484084844589233,-0.01719558984041214,-0.13563227653503418,0.9712596535682678,0.11907345056533813,-2.647120475769043,9.815142631530762,-2.765134334564209,1.0984197854995728,-0.84144127368927
1781545730513678,683862705,0.19483676552772522,-0.017265135422348976,-0.13555863499641418,0.9712694883346558,0.13700488209724426,-2.5413742065429688,9.718392372131348,-3.118551015853882,1.3975378274917603,-1.1727800369262695
1781545730541834,683879372,0.19498322904109955,-0.017358319833874702,-0.13558219373226166,0.9712351560592651,0.1443219631910324,-2.504915714263916,9.724592208862305,-3.740849733352661,1.3123754262924194,-1.1703850030899048
1781545730571654,683896039,0.19496046006679535,-0.017391590401530266,-0.13564008474349976,0.9712311029434204,0.152596578001976,-2.5336625576019287,9.777496337890625,-3.972811222076416,0.9907056093215942,-1.2298321723937988
1781545730573784,683912706,0.19493134319782257,-0.017444798722863197,-0.1357065737247467,0.9712266325950623,0.14435872435569763,-2.5761611461639404,9.761689186096191,-4.060483455657959,1.1100351810455322,-1.1861369609832764
1781545730601689,683929373,0.19496051967144012,-0.017421774566173553,-0.1357947140932083,0.9712088108062744,0.12957531213760376,-2.629472494125366,9.751388549804688,-4.089362144470215,0.5692742466926575,-1.431327223777771
1781545730603994,683946040,0.19490350782871246,-0.01733190007507801,-0.13585591316223145,0.9712134003639221,0.042999643832445145,-2.6874585151672363,9.84053897857666,-3.8904027938842773,0.3315756320953369,-1.9372038841247559
1781545730632577,683962707,0.1949544996023178,-0.017317820340394974,-0.13579390943050385,0.9712120890617371,0.029991742223501205,-2.7016258239746094,9.887950897216797,-3.0858309268951416,0.8668555021286011,-1.602125644683838
1781545730633890,683979374,0.1948433369398117,-0.017482656985521317,-0.13557790219783783,0.971261739730835,0.10994283109903336,-2.6302759647369385,9.787714958190918,-2.3179235458374023,2.267665147781372,-0.9143606424331665
1781545730662069,683996041,0.19488917291164398,-0.01759040728211403,-0.13543196022510529,0.9712708592414856,0.18132349848747253,-2.557349920272827,9.69922924041748,-2.6751952171325684,1.7699590921401978,-1.3782962560653687
1781545730663900,684012708,0.1950555294752121,-0.01777171902358532,-0.13535566627979279,0.971244752407074,0.17115375399589539,-2.5059688091278076,9.730096817016602,-3.2026758193969727,2.119802951812744,-1.4923622608184814
1781545730691824,684029375,0.1947491616010666,-0.017897911369800568,-0.13529939949512482,0.9713117480278015,0.13180828094482422,-2.5299315452575684,9.74911880493164,-3.474529504776001,2.037471055984497,-1.4039218425750732
1781545730722022,684046042,0.1947440207004547,-0.01801183819770813,-0.13525794446468353,0.9713163375854492,0.09323139488697052,-2.5835132598876953,9.797056198120117,-3.418501138687134,1.713892936706543,-1.4213638305664062
1781545730723500,684062709,0.19473837316036224,-0.017961684614419937,-0.13522587716579437,0.9713228940963745,0.01535090897232294,-2.6509292125701904,9.808302879333496,-3.267143487930298,0.6238037347793579,-1.6517630815505981
1781545730751700,684079376,0.19484096765518188,-0.017857952043414116,-0.13514845073223114,0.9713151454925537,0.03554094582796097,-2.6377174854278564,9.796097755432129,-2.832136631011963,0.2340296357870102,-1.63662588596344
1781545730754147,684096043,0.19482572376728058,-0.017817262560129166,-0.1350277215242386,0.971335768699646,0.08894044905900955,-2.6095101833343506,9.777210235595703,-2.6645662784576416,0.7596408128738403,-1.4085192680358887
1781545730781806,684112710,0.19466102123260498,-0.017782999202609062,-0.13491269946098328,0.9713852405548096,0.1612270474433899,-2.5959761142730713,9.727943420410156,-2.782179594039917,0.9056587815284729,-1.4117463827133179
1781545730783180,684129377,0.19447429478168488,-0.017882760614156723,-0.13484379649162292,0.9714305400848389,0.19752393662929535,-2.567474365234375,9.747686386108398,-3.297635316848755,1.7903344631195068,-1.4482061862945557
1781545730811970,684146044,0.19462576508522034,-0.018038511276245117,-0.13481378555297852,0.9714014530181885,0.13359034061431885,-2.57995867729187,9.791655540466309,-3.504495859146118,1.9457392692565918,-1.74199640750885
1781545730813241,684162711,0.1946418732404709,-0.018213709816336632,-0.13473808765411377,0.9714054465293884,0.07253899425268173,-2.579071044921875,9.79209041595459,-3.276350975036621,2.2102415561676025,-1.6120247840881348
1781545730841857,684179378,0.1944277584552765,-0.018277788534760475,-0.1346220076084137,0.971463143825531,0.00430853059515357,-2.5978479385375977,9.829460144042969,-2.942079782485962,1.6386940479278564,-1.4908000230789185
1781545730871685,684196045,0.1943446397781372,-0.018333323299884796,-0.13453611731529236,0.9714906811714172,-0.010104948654770851,-2.5814571380615234,9.735957145690918,-3.0434672832489014,1.338692545890808,-1.074068546295166
1781545730874046,684212712,0.19401328265666962,-0.018334193155169487,-0.13452523946762085,0.9715583920478821,0.05762013420462608,-2.5385429859161377,9.669065475463867,-3.5677595138549805,0.9699209332466125,-0.7961964011192322
1781545730902071,684229379,0.19395811855793,-0.018259214237332344,-0.13467775285243988,0.9715497493743896,0.06089543551206589,-2.5698208808898926,9.691620826721191,-4.471209526062012,0.12004031985998154,-1.2231602668762207
1781545730903626,684246046,0.19375906884670258,-0.018077662214636803,-0.13487200438976288,0.971565842628479,0.06945742666721344,-2.6258697509765625,9.829066276550293,-4.705693244934082,-0.4589795470237732,-1.6758517026901245
1781545730932131,684262713,0.19373661279678345,-0.018067369237542152,-0.13494889438152313,0.9715598225593567,0.10177043080329895,-2.658200263977051,9.873001098632812,-4.054746150970459,0.7054570317268372,-1.4645981788635254
1781545730933579,684279380,0.19357195496559143,-0.018199609592556953,-0.13489161431789398,0.9715982675552368,0.15816184878349304,-2.6034393310546875,9.804337501525879,-3.3892524242401123,1.9103683233261108,-1.1832685470581055
1781545730962091,684296047,0.1932200789451599,-0.01822148822247982,-0.134837806224823,0.9716752767562866,0.13305898010730743,-2.576519727706909,9.755105972290039,-3.3766636848449707,1.3869599103927612,-1.6294291019439697
1781545730964336,684312714,0.19319863617420197,-0.018192408606410027,-0.13479678332805634,0.9716857671737671,0.05970953032374382,-2.6177608966827393,9.789895057678223,-3.238572120666504,0.7864827513694763,-1.66883385181427
1781545730992158,684329381,0.19314639270305634,-0.01820770651102066,-0.1347590535879135,0.9717010855674744,0.03243190795183182,-2.6022443771362305,9.826255798339844,-3.332058906555176,1.0915429592132568,-1.590945839881897
1781545731046035,684346048,0.19296300411224365,-0.018201543018221855,-0.13467645645141602,0.9717491269111633,0.05403029918670654,-2.5761590003967285,9.763752937316895,-3.042506694793701,1.0450557470321655,-1.363568902015686
1781545731048042,684362715,0.19239874184131622,-0.018020590767264366,-0.13466008007526398,0.9718666076660156,0.06344054639339447,-2.5751047134399414,9.699082374572754,-3.447136878967285,0.10811762511730194,-1.7119147777557373
1781545731054369,684379382,0.19254730641841888,-0.01789221540093422,-0.13471895456314087,0.9718314409255981,0.08932345360517502,-2.58854603767395,9.79074478149414,-3.7029430866241455,-0.1509612500667572,-1.7220569849014282
1781545731055565,684396049,0.19244414567947388,-0.017870143055915833,-0.13473576307296753,0.9718499183654785,0.11980681121349335,-2.5955891609191895,9.779991149902344,-3.647312879562378,0.7121676206588745,-1.2565977573394775
1781545731081938,684412716,0.1929987221956253,-0.01798100396990776,-0.13478918373584747,0.9717304110527039,0.14019985496997833,-2.565319061279297,9.743289947509766,-3.7635178565979004,1.067159652709961,-1.1142550706863403
1781545731083506,684429383,0.19273145496845245,-0.01792416162788868,-0.13484059274196625,0.9717774391174316,0.14415888488292694,-2.563981056213379,9.745688438415527,-3.9037976264953613,0.5280889272689819,-1.1964715719223022
1781545731111902,684446050,0.1921370029449463,-0.01787625439465046,-0.13490423560142517,0.9718871116638184,0.09317086637020111,-2.575976610183716,9.770401000976562,-4.152061939239502,0.8098543882369995,-1.1940001249313354
1781545731113466,684462717,0.19141605496406555,-0.017653703689575195,-0.13491670787334442,0.9720317721366882,0.02261422574520111,-2.6326847076416016,9.851879119873047,-3.6203174591064453,-0.22968192398548126,-1.213734745979309
1781545731142079,684479384,0.19100719690322876,-0.017570411786437035,-0.134844109416008,0.9721237421035767,0.014795064926147461,-2.648458480834961,9.795348167419434,-3.0535333156585693,0.4972129166126251,-0.7036705017089844
1781545731172812,684496051,0.19089016318321228,-0.0175874475389719,-0.13477888703346252,0.9721554517745972,0.0801398754119873,-2.605621099472046,9.735095024108887,-3.084665298461914,0.8916484713554382,-0.39061927795410156
1781545731173925,684512718,0.19013611972332,-0.017561595886945724,-0.13476692140102386,0.9723052978515625,0.1019577831029892,-2.563541889190674,9.632485389709473,-3.6833887100219727,0.9818693995475769,-0.38276904821395874
1781545731201847,684529385,0.19019070267677307,-0.01766887679696083,-0.1349087655544281,0.972273051738739,0.09541260451078415,-2.5434553623199463,9.679715156555176,-4.5372138023376465,1.1211895942687988,-0.44744107127189636
1781545731205103,684546052,0.18906883895397186,-0.017550267279148102,-0.13508625328540802,0.9724693298339844,0.042093850672245026,-2.596691370010376,9.778241157531738,-5.033344268798828,0.4306327700614929,-0.7149913907051086
1781545731232470,684562719,0.1888345628976822,-0.017410675063729286,-0.13522416353225708,0.9724981784820557,0.023216545581817627,-2.65529465675354,9.904677391052246,-4.341084003448486,-0.26342663168907166,-0.8864043354988098
1781545731234035,684579386,0.1886560618877411,-0.01721484586596489,-0.13521037995815277,0.9725382924079895,0.06862945854663849,-2.661468267440796,9.886506080627441,-3.17368221282959,-0.5907953381538391,-0.46028587222099304
1781545731262483,684596053,0.18809853494167328,-0.01703527942299843,-0.13512945175170898,0.9726606607437134,0.11941416561603546,-2.6071252822875977,9.740949630737305,-2.9088213443756104,-0.14396898448467255,-0.3380492031574249
1781545731263539,684612720,0.18738232553005219,-0.01687631383538246,-0.13512490689754486,0.9728022217750549,0.12874439358711243,-2.5644314289093018,9.664690971374512,-3.5556960105895996,0.09883300960063934,-0.7044132947921753
1781545731292308,684629387,0.18705767393112183,-0.016821442171931267,-0.13523957133293152,0.9728497862815857,0.08943574130535126,-2.5718672275543213,9.708330154418945,-4.337894916534424,0.39964136481285095,-0.8107957243919373
1781545731321998,684646054,0.18681788444519043,-0.016818929463624954,-0.13541282713413239,0.9728717803955078,0.04957672581076622,-2.6276493072509766,9.743261337280273,-4.791252136230469,0.6917797923088074,-1.1026266813278198
1781545731323280,684662721,0.18668687343597412,-0.01676618680357933,-0.1355622112751007,0.9728770852088928,0.06881441175937653,-2.664576768875122,9.837967872619629,-4.493595123291016,0.2442491352558136,-0.8874801993370056
1781545731351932,684679388,0.1865510791540146,-0.016617339104413986,-0.1356583684682846,0.9728922247886658,0.0946936383843422,-2.6425621509552,9.749855995178223,-3.9991025924682617,-0.3561701774597168,-0.8433365821838379
1781545731353417,684696055,0.18668417632579803,-0.016560634598135948,-0.13574130833148956,0.9728561639785767,0.11885099858045578,-2.6245129108428955,9.811397552490234,-3.919268846511841,0.1297987848520279,-0.9541372060775757
1781545731381867,684712722,0.18654130399227142,-0.016467344015836716,-0.13576765358448029,0.9728814363479614,0.13183486461639404,-2.6115682125091553,9.795280456542969,-3.6099436283111572,0.144577294588089,-0.9193294644355774
1781545731383701,684729389,0.18621374666690826,-0.01629750244319439,-0.13579203188419342,0.9729436039924622,0.09932011365890503,-2.5903847217559814,9.757760047912598,-3.578376054763794,-0.24576666951179504,-0.9296899437904358
1781545731411698,684746056,0.18577486276626587,-0.0161452479660511,-0.13585659861564636,0.9730210304260254,0.07931039482355118,-2.561366319656372,9.706951141357422,-3.902658700942993,-0.18067200481891632,-0.5849044919013977
1781545731413619,684762723,0.1855485439300537,-0.01599389687180519,-0.13605114817619324,0.9730396270751953,0.04862009361386299,-2.5751571655273438,9.708601951599121,-4.689225673675537,-0.5016375780105591,-0.592473030090332
1781545731442140,684779390,0.18531116843223572,-0.01568683050572872,-0.13628408312797546,0.973057210445404,0.054688118398189545,-2.6197805404663086,9.767375946044922,-4.7424092292785645,-1.630581259727478,-0.5565255880355835
1781545731471963,684796057,0.18503667414188385,-0.015399312600493431,-0.13645394146442413,0.9730902910232544,0.09861162304878235,-2.6706137657165527,9.833741188049316,-4.3325419425964355,-1.4629205465316772,-0.233997642993927
1781545731473483,684812724,0.184703066945076,-0.015191367827355862,-0.13651247322559357,0.973148763179779,0.05040866509079933,-2.6769776344299316,9.791740417480469,-3.6511545181274414,-0.9098528027534485,0.5355551838874817
1781545731502003,684829391,0.18438076972961426,-0.015059194527566433,-0.1365681290626526,0.9732040762901306,0.13695861399173737,-2.620683431625366,9.80543041229248,-3.717094898223877,-0.4301909804344177,0.6930990219116211
1781545731503500,684846058,0.1833912432193756,-0.015057483687996864,-0.136272132396698,0.9734323620796204,0.05361082777380943,-2.6058239936828613,9.568078994750977,-1.3728153705596924,0.04681361839175224,6.346949577331543
1781545731532039,684862725,0.18294917047023773,-0.015255017206072807,-0.13654810190200806,0.9734739065170288,0.17229478061199188,-2.529226779937744,9.726927757263184,-5.6611504554748535,1.4709696769714355,1.4236756563186646
1781545731533438,684879392,0.18255513906478882,-0.015047562308609486,-0.13694117963314056,0.9734959006309509,0.09309382736682892,-2.6191728115081787,9.761988639831543,-5.934924125671387,-1.3835340738296509,0.8634746074676514
1781545731562070,684896059,0.18207918107509613,-0.0150170112028718,-0.13726821541786194,0.9735394716262817,0.07244037836790085,-2.6065127849578857,9.809087753295898,-5.674891471862793,-0.2843906581401825,1.977102279663086
1781545731563191,684912726,0.18148395419120789,-0.014982274733483791,-0.13752244412899017,0.9736152291297913,0.13837236166000366,-2.6144330501556396,9.790634155273438,-5.148627281188965,-0.38705915212631226,3.017503023147583
1781545731591857,684929393,0.1808338612318039,-0.01514280866831541,-0.1376620978116989,0.9737138748168945,0.052398521453142166,-2.792579174041748,9.706786155700684,-4.612117767333984,1.016753911972046,3.5737850666046143
1781545731621673,684946060,0.18039487302303314,-0.01484355702996254,-0.1379692256450653,0.9737564921379089,0.0766698345541954,-2.6885762214660645,9.821456909179688,-5.209097862243652,-2.0111477375030518,1.4241878986358643
1781545731624125,684962727,0.17996616661548615,-0.014494359493255615,-0.1382775455713272,0.9737974405288696,-0.012372910045087337,-2.6732146739959717,9.743368148803711,-5.111809253692627,-2.4729065895080566,1.851715326309204
1781545731651901,684979394,0.17936347424983978,-0.014330949634313583,-0.13859719038009644,0.9738655686378479,0.04078162461519241,-2.6266586780548096,9.721131324768066,-5.450830936431885,-1.2821205854415894,2.7001867294311523
1781545731654273,684996061,0.17874127626419067,-0.014250821433961391,-0.1390042006969452,0.9739231467247009,0.13836152851581573,-2.585897445678711,9.654268264770508,-6.144859313964844,-0.8690518736839294,2.9660985469818115
1781545731681643,685012728,0.17814117670059204,-0.014230889268219471,-0.1394968330860138,0.9739629626274109,0.23314835131168365,-2.599954843521118,9.743980407714844,-6.797266960144043,-0.5795642733573914,2.9670462608337402
1781545731683989,685029395,0.1776004135608673,-0.014003981836140156,-0.13996700942516327,0.9739976525306702,0.31219321489334106,-2.6679885387420654,9.826050758361816,-6.411052703857422,-1.8220622539520264,2.1365158557891846
1781545731711833,685046062,0.1771567314863205,-0.01393437385559082,-0.14031247794628143,0.9740296602249146,0.3385768532752991,-2.7059898376464844,9.85433578491211,-5.75391960144043,-0.5447694063186646,1.7364325523376465
1781545731713923,685062729,0.1765393614768982,-0.014144744724035263,-0.1403520703315735,0.9741330146789551,0.16521137952804565,-2.832223653793335,9.737898826599121,-3.9987704753875732,1.5420961380004883,3.233354091644287
1781545731741805,685079396,0.17624439299106598,-0.014410998672246933,-0.14047767221927643,0.9741645455360413,0.18005390465259552,-2.777244806289673,9.859321594238281,-4.680631637573242,2.1314697265625,1.0280489921569824
1781545731771646,685096063,0.1760215014219284,-0.014357252977788448,-0.1405857652425766,0.9741898775100708,0.11649122834205627,-2.751877546310425,9.721334457397461,-4.173999309539795,0.07844529300928116,0.23181414604187012
1781545731773543,685112730,0.1757643073797226,-0.01438879407942295,-0.14071592688560486,0.9742171764373779,0.11844362318515778,-2.6870107650756836,9.6778564453125,-4.425913333892822,0.588611900806427,0.5475803017616272
1781545731801731,685129397,0.17549282312393188,-0.014394782483577728,-0.140876904129982,0.9742427468299866,0.11408454179763794,-2.7227914333343506,9.721212387084961,-4.604677677154541,0.3665497899055481,0.6129183769226074
1781545731803741,685146064,0.17523093521595,-0.014535447582602501,-0.14096462726593018,0.9742750525474548,0.09052827954292297,-2.7890236377716064,9.78100299835205,-4.2678446769714355,1.3623589277267456,0.7053930759429932
1781545731831704,685162731,0.17499932646751404,-0.015032640658318996,-0.1408982127904892,0.9743186831474304,0.16126804053783417,-2.7903342247009277,9.919425964355469,-3.651372194290161,3.966888427734375,0.8643838167190552
1781545731833736,685179398,0.17462392151355743,-0.01514426339417696,-0.14079080522060394,0.974399983882904,0.40239036083221436,-2.752599000930786,9.820938110351562,-2.89117431640625,1.2899643182754517,1.5060585737228394
1781545731861682,685196065,0.1742691993713379,-0.01482769288122654,-0.14075681567192078,0.9744730591773987,-0.07461012899875641,-2.6856038570404053,9.715450286865234,-2.874628782272339,-1.6458978652954102,0.9380202889442444
1781545731863749,685212732,0.17381907999515533,-0.014743966981768608,-0.14080309867858887,0.9745481610298157,-0.002884856890887022,-2.6620497703552246,9.638399124145508,-3.698601722717285,-0.27771851420402527,1.803255558013916
1781545731892146,685229399,0.1733318418264389,-0.014645155519247055,-0.14091655611991882,0.9746199250221252,0.025779422372579575,-2.6421351432800293,9.6055269241333,-4.1386799812316895,-0.49275001883506775,2.0152907371520996
1781545731921952,685246066,0.1728454828262329,-0.014594325795769691,-0.1412861943244934,0.9746536016464233,0.015430464409291744,-2.6232707500457764,9.57819938659668,-5.948819637298584,-0.47263121604919434,1.9866045713424683
1781545731923355,685262733,0.17240969836711884,-0.014246808364987373,-0.14180760085582733,0.9746602177619934,0.07716172933578491,-2.6444828510284424,9.653512001037598,-6.635418891906738,-2.5878946781158447,1.3033087253570557
1781545731951967,685279400,0.1719486117362976,-0.013792617246508598,-0.14240619540214539,0.9746609926223755,0.11210682988166809,-2.756174325942993,9.710647583007812,-7.036169528961182,-3.4132769107818604,1.333467721939087
1781545731953521,685296067,0.17147567868232727,-0.013400745578110218,-0.14291410148143768,0.9746752381324768,0.164626345038414,-2.8222060203552246,9.850801467895508,-6.4889397621154785,-2.9044418334960938,1.512385368347168
