host_t_us,sensor_t_us,qw,qx,qy,qz,ax,ay,az,gx,gy,gz
1781546625414800,305501591,-0.01680922321975231,0.011502723209559917,-0.01012361515313387,-0.9997413754463196,-0.1561761200428009,0.2303609997034073,10.187298774719238,-3.403851270675659,0.7911059260368347,-1.2590306997299194
1781546625445099,305518258,-0.016813527792692184,0.011500833556056023,-0.010131556540727615,-0.99974125623703,-0.17183974385261536,0.22837646305561066,10.158719062805176,-3.404247760772705,0.7785683870315552,-1.2814160585403442
1781546625446339,305534925,-0.016819370910525322,0.011504157446324825,-0.010127058252692223,-0.9997411370277405,-0.17063063383102417,0.22957853972911835,10.185556411743164,-3.49019193649292,0.8129408359527588,-1.2933902740478516
1781546625474659,305551592,-0.01682816445827484,0.011494248174130917,-0.01011873409152031,-0.9997411370277405,-0.1743016093969345,0.22188442945480347,10.15810775756836,-3.5148565769195557,0.7213881015777588,-1.3124204874038696
1781546625476855,305568259,-0.01682736538350582,0.011485530994832516,-0.010114746168255806,-0.9997413754463196,-0.15945710241794586,0.2306125909090042,10.188094139099121,-3.486118793487549,0.7308391332626343,-1.2470566034317017
1781546625504421,305584926,-0.016826841980218887,0.011484776623547077,-0.010117320343852043,-0.9997413158416748,-0.1708175241947174,0.22319923341274261,10.190958976745605,-3.4419755935668945,0.7864699959754944,-1.2484012842178345
1781546625505502,305601593,-0.016829799860715866,0.011489403434097767,-0.010121439583599567,-0.9997411370277405,-0.15746836364269257,0.22452232241630554,10.184391021728516,-3.431807041168213,0.8234803080558777,-1.2730151414871216
1781546625534463,305618260,-0.01684238202869892,0.011487200856208801,-0.010122613981366158,-0.9997408986091614,-0.16238977015018463,0.23940905928611755,10.179121971130371,-3.4505810737609863,0.775661289691925,-1.3383147716522217
1781546625535746,305634927,-0.016852516680955887,0.011482697911560535,-0.01012817956507206,-0.9997407793998718,-0.16004633903503418,0.21372106671333313,10.179314613342285,-3.4204483032226562,0.7606395483016968,-1.3213849067687988
1781546625564503,305651594,-0.016853807494044304,0.011485892347991467,-0.010123401880264282,-0.9997407793998718,-0.17267681658267975,0.22407808899879456,10.165772438049316,-3.4931881427764893,0.8130816221237183,-1.2623348236083984
1781546625594611,305668261,-0.016853779554367065,0.01148578617721796,-0.010111921466886997,-0.9997408986091614,-0.16026854515075684,0.23003451526165009,10.174515724182129,-3.539073944091797,0.7897740602493286,-1.2531911134719849
1781546625596369,305684928,-0.016854675486683846,0.011485215276479721,-0.010119524784386158,-0.9997408986091614,-0.16226069629192352,0.22866234183311462,10.18879508972168,-3.4079487323760986,0.78886479139328,-1.2579933404922485
1781546625624183,305701595,-0.01685025915503502,0.011488726362586021,-0.010115297511219978,-0.9997408986091614,-0.16951414942741394,0.2278282195329666,10.192623138427734,-3.490229606628418,0.816001296043396,-1.2228013277053833
1781546625626088,305718262,-0.016847895458340645,0.01148676685988903,-0.010114545933902264,-0.9997410178184509,-0.16395968198776245,0.2270796000957489,10.170148849487305,-3.465590715408325,0.7787477374076843,-1.2367477416992188
1781546625654555,305734929,-0.016848037019371986,0.011498250998556614,-0.010115206241607666,-0.9997407793998718,-0.17337961494922638,0.22258442640304565,10.189753532409668,-3.4573814868927,0.8712479472160339,-1.2542153596878052
1781546625656490,305751596,-0.01684766262769699,0.011507739312946796,-0.010104028508067131,-0.9997408390045166,-0.17257286608219147,0.2338658571243286,10.167620658874512,-3.5386128425598145,0.856290340423584,-1.2516416311264038
1781546625684497,305768263,-0.016844497993588448,0.011507275514304638,-0.010108194313943386,-0.9997408986091614,-0.1770365983247757,0.23330436646938324,10.17809009552002,-3.432345390319824,0.7899405360221863,-1.2299474477767944
1781546625686110,305784930,-0.016846980899572372,0.011510232463479042,-0.01010738406330347,-0.999740719795227,-0.17293332517147064,0.2296106070280075,10.182967185974121,-3.466601848602295,0.8125565052032471,-1.270479440689087
1781546625714274,305801597,-0.01685432158410549,0.011513245292007923,-0.010106499306857586,-0.9997406005859375,-0.17717324197292328,0.2292981892824173,10.193695068359375,-3.4669220447540283,0.8126717805862427,-1.3036736249923706
1781546625744354,305818264,-0.01685979776084423,0.01151032280176878,-0.010103837586939335,-0.9997405409812927,-0.15501640737056732,0.21969392895698547,10.166071891784668,-3.478729486465454,0.7718579173088074,-1.289689064025879
1781546625746173,305834931,-0.01685062050819397,0.011511175893247128,-0.010100196115672588,-0.9997407793998718,-0.16814693808555603,0.22906313836574554,10.187736511230469,-3.487130880355835,0.7988153100013733,-1.1899149417877197
1781546625774633,305851598,-0.0168510340154171,0.011504042893648148,-0.010091128759086132,-0.9997409582138062,-0.1816001534461975,0.2355039268732071,10.19232177734375,-3.5229122638702393,0.7427364587783813,-1.2553938627243042
1781546625776030,305868265,-0.016858965158462524,0.011513931676745415,-0.010090308263897896,-0.9997407793998718,-0.17379799485206604,0.21501006186008453,10.191189765930176,-3.467550039291382,0.8602473735809326,-1.3083608150482178
1781546625804611,305884932,-0.01686006784439087,0.011513174511492252,-0.01007585134357214,-0.9997408390045166,-0.17581036686897278,0.21196769177913666,10.1762113571167,-3.5606906414031982,0.7860346436500549,-1.2611693143844604
1781546625806107,305901599,-0.016861792653799057,0.011518891900777817,-0.010079608298838139,-0.9997406601905823,-0.160086527466774,0.2257414162158966,10.182126998901367,-3.4362893104553223,0.832700788974762,-1.264588475227356
1781546625834032,305918266,-0.01685514859855175,0.011518041603267193,-0.010076443664729595,-0.9997408390045166,-0.1627253293991089,0.22295621037483215,10.1804780960083,-3.4838905334472656,0.7874047756195068,-1.206255555152893
1781546625836119,305934933,-0.0168573260307312,0.01152485515922308,-0.010074537247419357,-0.999740719795227,-0.16487349569797516,0.22757375240325928,10.17833137512207,-3.475464344024658,0.8396932482719421,-1.2683281898498535
1781546625864287,305951600,-0.016870658844709396,0.01151660829782486,-0.01006957795470953,-0.9997406601905823,-0.16858285665512085,0.23420654237270355,10.177355766296387,-3.4938669204711914,0.735142171382904,-1.3437319993972778
1781546625895089,305968267,-0.01686895079910755,0.011521469801664352,-0.010075155645608902,-0.9997405409812927,-0.17134009301662445,0.21521525084972382,10.178240776062012,-3.4242517948150635,0.8276039958000183,-1.2404230833053589
1781546625897003,305984934,-0.016871947795152664,0.011514982208609581,-0.01007374469190836,-0.9997406005859375,-0.17105929553508759,0.24953165650367737,10.207647323608398,-3.470738649368286,0.7485120296478271,-1.2731434106826782
1781546625924564,306001601,-0.01687764562666416,0.011503862217068672,-0.010075445286929607,-0.9997406601905823,-0.15473076701164246,0.2303367406129837,10.192188262939453,-3.448775291442871,0.7169570326805115,-1.291392207145691
1781546625926357,306018268,-0.016867227852344513,0.011493734084069729,-0.010082254186272621,-0.9997408986091614,-0.1654699444770813,0.20945659279823303,10.19009017944336,-3.4151463508605957,0.7255629897117615,-1.178824543952942
1781546625954969,306034935,-0.016863031312823296,0.011489257216453552,-0.010078288614749908,-0.9997410774230957,-0.16260595619678497,0.22613516449928284,10.160006523132324,-3.4893076419830322,0.7628166675567627,-1.2242228984832764
1781546625956754,306051602,-0.016871854662895203,0.011485488153994083,-0.010083169676363468,-0.9997409582138062,-0.17574875056743622,0.22645801305770874,10.182687759399414,-3.427670955657959,0.7679263949394226,-1.31271493434906
1781546625984090,306068269,-0.016875658184289932,0.011492940597236156,-0.010084989480674267,-0.999740719795227,-0.17121972143650055,0.2236078381538391,10.179329872131348,-3.4505555629730225,0.8450846076011658,-1.2785987854003906
1781546625986320,306084936,-0.01688184216618538,0.01149517111480236,-0.010081791318953037,-0.9997406601905823,-0.16713055968284607,0.23299434781074524,10.179060935974121,-3.4843902587890625,0.8085482120513916,-1.2948628664016724
1781546626014328,306101603,-0.016878386959433556,0.011499091982841492,-0.01007041335105896,-0.9997408390045166,-0.16455784440040588,0.2208443135023117,10.18667984008789,-3.5416860580444336,0.8199201226234436,-1.2302805185317993
1781546626044391,306118270,-0.016500167548656464,0.011298193596303463,-0.010142883285880089,-0.999748706817627,-0.1742154359817505,0.21989211440086365,10.177135467529297,-3.4086151123046875,0.7491523623466492,-1.276511311531067
1781546626046355,306134937,-0.01649995520710945,0.011298694647848606,-0.010140317492187023,-0.9997486472129822,-0.1568078100681305,0.23075126111507416,10.19024658203125,-3.4813294410705566,0.7973938584327698,-1.2559316158294678
1781546626074824,306151604,-0.016508331522345543,0.011300189420580864,-0.010139663703739643,-0.9997484683990479,-0.17575770616531372,0.2118370532989502,10.195348739624023,-3.467780590057373,0.8039891123771667,-1.3145591020584106
1781546626076530,306168271,-0.016507497057318687,0.011298838071525097,-0.010131319053471088,-0.9997485280036926,-0.16290423274040222,0.21451477706432343,10.207476615905762,-3.5210936069488525,0.7842161655426025,-1.2527941465377808
1781546626105783,306184938,-0.016507407650351524,0.01129214745014906,-0.010125688277184963,-0.9997487664222717,-0.17462021112442017,0.23314861953258514,10.200501441955566,-3.5018961429595947,0.7478331327438354,-1.2573659420013428
1781546626106913,306201605,-0.01650388538837433,0.011301932856440544,-0.01012712623924017,-0.999748706817627,-0.1754804253578186,0.22168534994125366,10.197856903076172,-3.455460786819458,0.8622451424598694,-1.2332770824432373
1781546626134124,306218272,-0.01650913618505001,0.011318306438624859,-0.010121787898242474,-0.9997484087944031,-0.1627625674009323,0.22349342703819275,10.186030387878418,-3.5021274089813232,0.9062222242355347,-1.2955033779144287
1781546626135579,306234939,-0.016519322991371155,0.011317560449242592,-0.01012041699141264,-0.9997483491897583,-0.1703934669494629,0.2333429902791977,10.194140434265137,-3.472672462463379,0.788723886013031,-1.3272373676300049
1781546626164971,306251606,-0.016524331644177437,0.011300795711576939,-0.010116168297827244,-0.9997485280036926,-0.16462044417858124,0.22509907186031342,10.168472290039062,-3.491100788116455,0.6787429451942444,-1.29021418094635
1781546626194456,306268273,-0.016516946256160736,0.011301178485155106,-0.010118914768099785,-0.9997485876083374,-0.14647822082042694,0.2185852825641632,10.170637130737305,-3.445984125137329,0.7983414530754089,-1.2062556743621826
1781546626196788,306284940,-0.0165102556347847,0.011299964040517807,-0.010116457007825375,-0.999748706817627,-0.17063483595848083,0.22204546630382538,10.17888355255127,-3.48164963722229,0.7868413925170898,-1.211583137512207
1781546626224547,306301607,-0.01651155948638916,0.01128917932510376,-0.010109763592481613,-0.9997488856315613,-0.17147445678710938,0.2160169780254364,10.17071533203125,-3.5090677738189697,0.7200562357902527,-1.2664966583251953
1781546626225988,306318274,-0.01651212014257908,0.011289532296359539,-0.01009966991841793,-0.9997490048408508,-0.15981009602546692,0.21868053078651428,10.191153526306152,-3.533874034881592,0.7964205741882324,-1.2611054182052612
1781546626254855,306334941,-0.016508078202605247,0.011295708827674389,-0.010102528147399426,-0.9997488856315613,-0.15212620794773102,0.2433992475271225,10.181924819946289,-3.445817708969116,0.8382844924926758,-1.2302165031433105
1781546626256283,306351608,-0.01651397906243801,0.011303607374429703,-0.010110102593898773,-0.9997486472129822,-0.1676872819662094,0.23288394510746002,10.161165237426758,-3.412930965423584,0.8501047492027283,-1.2973473072052002
1781546626283993,306368275,-0.016501734033226967,0.011305628344416618,-0.010129555128514767,-0.9997486472129822,-0.17611384391784668,0.2379661500453949,10.186834335327148,-3.332237958908081,0.8123644590377808,-1.1716787815093994
1781546626286246,306384942,-0.016505075618624687,0.011300686746835709,-0.010120559483766556,-0.999748706817627,-0.1744450330734253,0.22095637023448944,10.161650657653809,-3.525895595550537,0.7602041959762573,-1.280942440032959
1781546626314544,306401609,-0.016515087336301804,0.011296093463897705,-0.010120668448507786,-0.9997485876083374,-0.15772537887096405,0.22479917109012604,10.192915916442871,-3.462965250015259,0.7632776498794556,-1.3259310722351074
1781546626344482,306418276,-0.01651923917233944,0.011294614523649216,-0.010127336718142033,-0.9997485280036926,-0.17230123281478882,0.2222588062286377,10.164654731750488,-3.4184887409210205,0.7859065532684326,-1.2850404977798462
1781546626346016,306434943,-0.01652112975716591,0.011299592442810535,-0.010129662230610847,-0.9997484683990479,-0.16766762733459473,0.21415498852729797,10.18419075012207,-3.449492931365967,0.8300116062164307,-1.270761251449585
1781546626374418,306451610,-0.0165267176926136,0.011305268853902817,-0.010128761641681194,-0.999748170375824,-0.1748615950345993,0.21783988177776337,10.18563461303711,-3.471519947052002,0.8342889547348022,-1.2956057786941528
1781546626376544,306468277,-0.01652744971215725,0.011301135644316673,-0.010120978578925133,-0.9997482895851135,-0.17822259664535522,0.2307756394147873,10.180211067199707,-3.518282413482666,0.7664088606834412,-1.2630071640014648
1781546626404629,306484944,-0.016526123508810997,0.011311427690088749,-0.010121096856892109,-0.9997482299804688,-0.16542376577854156,0.22472617030143738,10.189408302307129,-3.465654134750366,0.8667145371437073,-1.2495923042297363
1781546626405805,306501611,-0.016516942530870438,0.0113111212849617,-0.010122576728463173,-0.9997484683990479,-0.17420539259910583,0.22579684853553772,10.1799955368042,-3.4557809829711914,0.7946276068687439,-1.193539023399353
1781546626434147,306518278,-0.01652248576283455,0.011303856037557125,-0.010122633539140224,-0.9997483491897583,-0.18160206079483032,0.217119961977005,10.19803237915039,-3.4637844562530518,0.7456048727035522,-1.2949140071868896
1781546626435930,306534945,-0.016514522954821587,0.011291727423667908,-0.010123182088136673,-0.9997486472129822,-0.17176438868045807,0.20868705213069916,10.167401313781738,-3.4609034061431885,0.7132049202919006,-1.2017223834991455
1781546626465724,306551612,-0.016529418528079987,0.01128721795976162,-0.010126926004886627,-0.9997484087944031,-0.16154471039772034,0.2243494689464569,10.2034330368042,-3.4380440711975098,0.7644430994987488,-1.359022855758667
1781546626494539,306568279,-0.01653856225311756,0.01129640731960535,-0.010133066214621067,-0.9997481107711792,-0.1731240451335907,0.22111940383911133,10.181291580200195,-3.423598527908325,0.8593509197235107,-1.3203731775283813
1781546626496479,306584946,-0.01653527468442917,0.011311356909573078,-0.010144369676709175,-0.9997479319572449,-0.1911974847316742,0.2312430590391159,10.178912162780762,-3.389866590499878,0.9004208445549011,-1.2352237701416016
1781546626525405,306601613,-0.01653941161930561,0.011310209520161152,-0.010150234214961529,-0.9997477531433105,-0.17019441723823547,0.23323765397071838,10.175485610961914,-3.424994468688965,0.788672685623169,-1.2852965593338013
1781546626526352,306618280,-0.016533689573407173,0.011311979033052921,-0.010154129937291145,-0.9997478127479553,-0.1740373820066452,0.23902592062950134,10.190362930297852,-3.439708948135376,0.8092396855354309,-1.2182296514511108
1781546626554594,306634947,-0.016538115218281746,0.01131486240774393,-0.010148858651518822,-0.9997478127479553,-0.17074604332447052,0.2274906188249588,10.195055961608887,-3.502089023590088,0.8151947259902954,-1.2886648178100586
1781546626556168,306651614,-0.016544312238693237,0.011330174282193184,-0.010154465213418007,-0.9997473955154419,-0.16825789213180542,0.23434235155582428,10.150362968444824,-3.4286694526672363,0.9018166661262512,-1.3012148141860962
1781546626584151,306668281,-0.016547976061701775,0.011321657337248325,-0.010163620114326477,-0.9997473359107971,-0.17892026901245117,0.22422821819782257,10.16293716430664,-3.401789426803589,0.7386126518249512,-1.2817236185073853
1781546626614921,306684948,-0.016548821702599525,0.011317776516079903,-0.010167177766561508,-0.9997473359107971,-0.17422688007354736,0.22373637557029724,10.193795204162598,-3.441117286682129,0.7700523138046265,-1.262911081314087
1781546626616376,306701615,-0.016548026353120804,0.011318652890622616,-0.010163011960685253,-0.9997473955154419,-0.17420411109924316,0.22639337182044983,10.186768531799316,-3.4949300289154053,0.8020681142807007,-1.252448320388794
1781546626644556,306718282,-0.01654653064906597,0.011320501565933228,-0.010172893293201923,-0.9997472763061523,-0.17574889957904816,0.22295108437538147,10.170756340026855,-3.398664712905884,0.8104307055473328,-1.2470312118530273
1781546626646201,306734949,-0.016553467139601707,0.011310579255223274,-0.010175767354667187,-0.9997472167015076,-0.16260387003421783,0.2208511382341385,10.185284614562988,-3.4450104236602783,0.7281882166862488,-1.3047877550125122
1781546626674393,306751616,-0.016548490151762962,0.011315611191093922,-0.010179932229220867,-0.9997471570968628,-0.16137909889221191,0.23397034406661987,10.171069145202637,-3.438838005065918,0.8320606350898743,-1.223954200744629
1781546626676489,306768283,-0.016552051529288292,0.011306250467896461,-0.010177983902394772,-0.9997472167015076,-0.16926057636737823,0.21671243011951447,10.192425727844238,-3.478576421737671,0.73187655210495,-1.2807117700576782
1781546626705822,306784950,-0.01655147224664688,0.011299868114292622,-0.010175167582929134,-0.9997474551200867,-0.17919941246509552,0.22333352267742157,10.180148124694824,-3.485133171081543,0.7526227831840515,-1.2531782388687134
1781546626707707,306801617,-0.016555530950427055,0.011293577961623669,-0.010170943103730679,-0.9997475743293762,-0.16104060411453247,0.23064377903938293,10.174642562866211,-3.494596481323242,0.7527507543563843,-1.284630537033081
1781546626734485,306818284,-0.016545286402106285,0.011301365680992603,-0.010169648565351963,-0.9997475743293762,-0.17097468674182892,0.22880001366138458,10.177885055541992,-3.477180004119873,0.8509371280670166,-1.187391757965088
1781546626764015,306834951,-0.01654895953834057,0.011296872980892658,-0.01016688160598278,-0.9997475743293762,-0.18211975693702698,0.23635879158973694,10.164907455444336,-3.4849154949188232,0.7654547691345215,-1.2831323146820068
1781546626766375,306851618,-0.016548583284020424,0.011291510425508022,-0.010180645622313023,-0.9997475147247314,-0.17874518036842346,0.2385082095861435,10.158217430114746,-3.3717074394226074,0.7616641521453857,-1.2534984350204468
1781546626793997,306868285,-0.016551963984966278,0.011289071291685104,-0.01016705296933651,-0.999747633934021,-0.18336282670497894,0.22954891622066498,10.169882774353027,-3.5598714351654053,0.7783892750740051,-1.2811729907989502
1781546626795941,306884952,-0.016552215442061424,0.01127532497048378,-0.010164394974708557,-0.9997478127479553,-0.17968051135540009,0.2061823159456253,10.160979270935059,-3.4836983680725098,0.7021785378456116,-1.2581852674484253
1781546626825130,306901619,-0.0165585745126009,0.011269895359873772,-0.010166969150304794,-0.9997477531433105,-0.17909976840019226,0.22428961098194122,10.18029499053955,-3.4480841159820557,0.7595255374908447,-1.3010611534118652
1781546626827119,306918286,-0.016571925953030586,0.011270665563642979,-0.010172859765589237,-0.9997474551200867,-0.1683422476053238,0.2201543003320694,10.185837745666504,-3.425698757171631,0.8021065592765808,-1.3490338325500488
1781546626854279,306934953,-0.016571108251810074,0.011281775310635567,-0.010170121677219868,-0.9997473955154419,-0.16849425435066223,0.2194811999797821,10.177689552307129,-3.487323522567749,0.8731818795204163,-1.2528966665267944
1781546626858198,306951620,-0.016572391614317894,0.011273019947111607,-0.010169506072998047,-0.9997473955154419,-0.1750447154045105,0.22650837898254395,10.192937850952148,-3.4702131748199463,0.7367556095123291,-1.2656898498535156
1781546626884962,306968287,-0.016576169058680534,0.01125988271087408,-0.010171806439757347,-0.9997475147247314,-0.16538630425930023,0.21682769060134888,10.187095642089844,-3.4497106075286865,0.7068400382995605,-1.2819284200668335
1781546626914565,306984954,-0.016581811010837555,0.011271861381828785,-0.010168245062232018,-0.9997473359107971,-0.17727728188037872,0.21756747364997864,10.160431861877441,-3.492727279663086,0.878765344619751,-1.296988844871521
1781546626915993,307001621,-0.016585499048233032,0.011272688396275043,-0.01016307808458805,-0.9997473359107971,-0.1641877293586731,0.21589885652065277,10.169744491577148,-3.502716541290283,0.802068293094635,-1.2831835746765137
1781546626944872,307018288,-0.016585348173975945,0.011263949796557426,-0.010164353996515274,-0.9997473359107971,-0.1624016910791397,0.21702727675437927,10.176438331604004,-3.4576120376586914,0.7373704314231873,-1.255585789680481
1781546626946196,307034955,-0.016580302268266678,0.01126878522336483,-0.01016821339726448,-0.9997473359107971,-0.1743854135274887,0.22023704648017883,10.176765441894531,-3.44179630279541,0.8314074277877808,-1.2219178676605225
1781546626974150,307051622,-0.016581902280449867,0.011275393888354301,-0.010177361778914928,-0.9997471570968628,-0.17375054955482483,0.21372553706169128,10.184057235717773,-3.4050164222717285,0.8437912464141846,-1.2685714960098267
1781546626976208,307068289,-0.01658238284289837,0.011266490444540977,-0.010186650790274143,-0.9997471570968628,-0.16008682548999786,0.22912447154521942,10.163203239440918,-3.4026858806610107,0.7372552156448364,-1.2592101097106934
1781546627004068,307084956,-0.016583727672696114,0.011272440664470196,-0.010194086469709873,-0.9997470378875732,-0.17991842329502106,0.22054745256900787,10.185297012329102,-3.4170925617218018,0.8391552567481995,-1.2663686275482178
1781546627005564,307101623,-0.016578281298279762,0.01127990148961544,-0.010198979638516903,-0.9997469782829285,-0.1694379299879074,0.22477683424949646,10.181424140930176,-3.435073137283325,0.8497589826583862,-1.22035551071167
1781546627034405,307118290,-0.016567090526223183,0.011269595474004745,-0.010200115852057934,-0.9997472763061523,-0.16803909838199615,0.22697018086910248,10.189862251281738,-3.459571599960327,0.7275992631912231,-1.1798235177993774
1781546627064402,307134957,-0.016573451459407806,0.011274888180196285,-0.01019903365522623,-0.999747097492218,-0.1782321035861969,0.23191112279891968,10.181915283203125,-3.4751570224761963,0.8334308862686157,-1.3014582395553589
1781546627066904,307151624,-0.016577260568737984,0.01128552295267582,-0.010200745426118374,-0.9997469186782837,-0.17497439682483673,0.22488294541835785,10.176933288574219,-3.4569079875946045,0.8706717491149902,-1.2838879823684692
1781546627093975,307168291,-0.0165764968842268,0.011280007660388947,-0.010198661126196384,-0.9997469782829285,-0.16873638331890106,0.22702717781066895,10.176889419555664,-3.4816620349884033,0.7595638036727905,-1.2524352073669434
1781546627096407,307184958,-0.016569916158914566,0.011285707354545593,-0.010195479728281498,-0.999747097492218,-0.16120025515556335,0.22031442821025848,10.17699909210205,-3.4908447265625,0.836927056312561,-1.213196873664856
1781546627124115,307201625,-0.016582947224378586,0.011277109384536743,-0.010194463655352592,-0.9997469782829285,-0.16146130859851837,0.21651320159435272,10.16339111328125,-3.472825765609741,0.7376264333724976,-1.3461649417877197
1781546627126465,307218292,-0.0165846049785614,0.011281482875347137,-0.010193833149969578,-0.9997469186782837,-0.17128793895244598,0.20962262153625488,10.162631034851074,-3.472646951675415,0.8276679515838623,-1.2695831060409546
1781546627154765,307234959,-0.016583003103733063,0.011292535811662674,-0.010190715081989765,-0.9997468590736389,-0.16364037990570068,0.2147558480501175,10.179755210876465,-3.4908061027526855,0.8735916018486023,-1.2472745180130005
1781546627157062,307251626,-0.01658146269619465,0.011295394971966743,-0.010192741639912128,-0.9997468590736389,-0.17768655717372894,0.21369554102420807,10.145212173461914,-3.4544363021850586,0.8178967833518982,-1.2472872734069824
1781546627185259,307268293,-0.01658417470753193,0.01129915565252304,-0.0101956557482481,-0.9997466802597046,-0.18116463720798492,0.22375904023647308,10.181264877319336,-3.44826340675354,0.8239669799804688,-1.275512456893921
1781546627186843,307284960,-0.01659284345805645,0.011301356367766857,-0.010189732536673546,-0.9997466206550598,-0.1708899438381195,0.24144090712070465,10.16923999786377,-3.5082101821899414,0.8117753267288208,-1.3180935382843018
1781546627215150,307301627,-0.016592470929026604,0.011305282823741436,-0.010199959389865398,-0.9997463822364807,-0.16862565279006958,0.22225236892700195,10.18447494506836,-3.3981902599334717,0.8261824250221252,-1.2533830404281616
1781546627244042,307318294,-0.01659523881971836,0.011301141232252121,-0.010206901468336582,-0.9997463226318359,-0.16311167180538177,0.21414870023727417,10.17492389678955,-3.4197182655334473,0.7701674699783325,-1.274603247642517
1781546627274271,307334961,-0.016597023233771324,0.011291727423667908,-0.010208358988165855,-0.9997464418411255,-0.1856168955564499,0.21526043117046356,10.165434837341309,-3.4569976329803467,0.7333748936653137,-1.2689557075500488
1781546627277857,307351628,-0.016588902100920677,0.011297125369310379,-0.010216528549790382,-0.9997464418411255,-0.16893690824508667,0.22422024607658386,10.176214218139648,-3.4130847454071045,0.8366453051567078,-1.2011972665786743
1781546627278265,307368295,-0.01658751256763935,0.01129470020532608,-0.010230419225990772,-0.9997463822364807,-0.17271603643894196,0.23328882455825806,10.18642520904541,-3.3725523948669434,0.783076286315918,-1.247556209564209
1781546627303991,307384962,-0.016589609906077385,0.011287504807114601,-0.01023302972316742,-0.9997463226318359,-0.15037237107753754,0.2294139415025711,10.200263023376465,-3.44950532913208,0.7488448619842529,-1.2713119983673096
1781546627306324,307401629,-0.016589440405368805,0.011290584690868855,-0.01022589486092329,-0.9997463822364807,-0.17599578201770782,0.2203674167394638,10.194169998168945,-3.517674446105957,0.8186140060424805,-1.2569178342819214
1781546627333993,307418296,-0.01657862775027752,0.011293474584817886,-0.010225404985249043,-0.999746561050415,-0.18996039032936096,0.21702346205711365,10.187967300415039,-3.4729537963867188,0.8187931776046753,-1.1830121278762817
1781546627336215,307434963,-0.01657925918698311,0.01129787415266037,-0.010215377435088158,-0.9997466802597046,-0.16581007838249207,0.21898025274276733,10.182644844055176,-3.537843942642212,0.8272582292556763,-1.262744665145874
1781546627364133,307451630,-0.016583019867539406,0.01129474863409996,-0.010217317380011082,-0.999746561050415,-0.17032840847969055,0.2183903455734253,10.186643600463867,-3.454371929168701,0.7767882943153381,-1.2828246355056763
1781546627393968,307468297,-0.016579462215304375,0.011295589618384838,-0.010228903032839298,-0.9997465014457703,-0.16535577178001404,0.22041818499565125,10.207799911499023,-3.3892006874084473,0.8056923151016235,-1.2315739393234253
1781546627396131,307484964,-0.016585662961006165,0.011297207325696945,-0.010226365178823471,-0.9997462630271912,-0.1750263273715973,0.2263215184211731,10.20289421081543,-3.485799551010132,0.8087531328201294,-1.3005746603012085
1781546627424478,307501631,-0.01660000905394554,0.011292703449726105,-0.010236604139208794,-0.9997460842132568,-0.16580314934253693,0.20953218638896942,10.187980651855469,-3.3964486122131348,0.7675933837890625,-1.3544892072677612
1781546627425606,307518298,-0.016596822068095207,0.011303679086267948,-0.010235856287181377,-0.9997460246086121,-0.17017383873462677,0.22460831701755524,10.178228378295898,-3.475208282470703,0.8740398287773132,-1.236261010169983
1781546627454917,307534965,-0.016603117808699608,0.011307192966341972,-0.010231603868305683,-0.9997459650039673,-0.17818811535835266,0.2362099140882492,10.197728157043457,-3.4977989196777344,0.8216747045516968,-1.3010741472244263
1781546627456033,307551632,-0.016595879569649696,0.01131381094455719,-0.010226584039628506,-0.9997459650039673,-0.16902810335159302,0.23369865119457245,10.169697761535645,-3.504432201385498,0.8439319729804993,-1.2083942890167236
1781546627484409,307568299,-0.016597457230091095,0.011407099664211273,-0.00966486893594265,-0.999750554561615,-0.1998654305934906,0.3055049777030945,10.373963356018066,-7.340780258178711,1.3751780986785889,-1.3182474374771118
1781546627486138,307584966,-0.019211014732718468,0.011337908916175365,-0.008529732935130596,-0.9997147917747498,-0.243707075715065,-0.08295357972383499,10.002452850341797,-11.05650806427002,0.02245597168803215,-19.310958862304688
1781546627514990,307601633,-0.019179899245500565,0.011340855620801449,-0.00849866308271885,-0.9997156858444214,-0.05451659485697746,0.40637680888175964,10.186480522155762,-3.685091495513916,0.8162192106246948,-1.0459331274032593
1781546627544083,307618300,-0.018994228914380074,0.011339978314936161,-0.008458666503429413,-0.999719500541687,-0.1121392473578453,0.1651689112186432,10.177811622619629,-3.7585744857788086,0.7978549003601074,0.016347309574484825
1781546627546322,307634967,-0.017558984458446503,0.011316142976284027,-0.008424933068454266,-0.9997463822364807,-0.08308997005224228,0.17509600520133972,10.176403045654297,-3.811260938644409,0.7118988037109375,8.609013557434082
1781546627574787,307651634,-0.013511153869330883,0.011304138228297234,-0.008375229313969612,-0.9998098611831665,-0.04199324920773506,0.020829563960433006,10.177328109741211,-4.127599239349365,0.9400590062141418,26.570472717285156
1781546627577077,307668301,-0.006612434051930904,0.011231109499931335,-0.008308898657560349,-0.9998806118965149,-0.38309240341186523,0.11851119250059128,10.15477466583252,-4.457578182220459,0.6829742193222046,46.16993713378906
1781546627604558,307684968,-0.0030917045660316944,0.011270511895418167,-0.008359829895198345,-0.9998968243598938,-0.7230334877967834,-0.0946856141090393,10.134675979614258,-3.392331838607788,1.2720378637313843,22.94847869873047
1781546627606277,307701635,-0.003936262801289558,0.01119047962129116,-0.008287063799798489,-0.9998953938484192,-0.03417311608791351,0.7796590924263,10.235028266906738,-3.9001615047454834,0.1975315511226654,-7.064688205718994
1781546627634030,307718302,-0.0034985130187124014,0.011178616434335709,-0.008293796330690384,-0.9998970031738281,0.27019158005714417,0.20684607326984406,10.173013687133789,-3.4559223651885986,0.7414557337760925,1.75359308719635
1781546627636158,307734969,-0.000987966894172132,0.011193720623850822,-0.00835885014384985,-0.999902069568634,0.07949025928974152,0.36690792441368103,10.17724895477295,-3.2153444290161133,1.047221064567566,16.00628089904785
1781546627664235,307751636,0.0035807376261800528,0.011207477189600468,-0.008440157398581505,-0.9998952746391296,-0.18351498246192932,0.14170075953006744,10.163290023803711,-3.2612884044647217,1.1579089164733887,30.156341552734375
1781546627694576,307768303,0.008075584657490253,0.011641687713563442,-0.00899339746683836,-0.9998592138290405,-0.17987650632858276,0.10918520390987396,10.081537246704102,0.000992495333775878,4.034736633300781,29.661117553710938
1781546627696144,307784970,0.010679226368665695,0.01217716746032238,-0.009598453529179096,-0.9998228549957275,-0.420388787984848,0.137789785861969,10.292530059814453,0.5145660638809204,4.611091136932373,16.657855987548828
1781546627725181,307801637,0.01333751529455185,0.012087537907063961,-0.009502300061285496,-0.9997928738594055,0.13929642736911774,-0.35069674253463745,10.20797348022461,-4.356276988983154,0.3680485188961029,17.015810012817383
1781546627726591,307818304,0.018913790583610535,0.011488751508295536,-0.008880524896085262,-0.9997158050537109,-0.2041056752204895,0.27597445249557495,10.181221008300781,-8.254106521606445,-2.8883204460144043,37.06784439086914
1781546627754720,307834971,0.02360752783715725,0.011323224753141403,-0.008693120442330837,-0.9996193647384644,-0.4362512528896332,0.5824748873710632,10.189300537109375,-5.1412811279296875,-0.019248010590672493,31.012880325317383
1781546627756955,307851638,0.02773490734398365,0.010999622754752636,-0.008459789678454399,-0.9995190501213074,-0.2552894651889801,0.24168862402439117,10.140193939208984,-5.439088344573975,-1.132314682006836,27.12664222717285
1781546627784136,307868305,0.031610872596502304,0.011070825159549713,-0.008394994772970676,-0.999403715133667,-0.31454697251319885,0.3219202160835266,10.174722671508789,-4.185675621032715,1.5349663496017456,25.390947341918945
1781546627785829,307884972,0.035216689109802246,0.011033178307116032,-0.008351916447281837,-0.999284029006958,-0.19135402143001556,0.30894139409065247,10.189728736877441,-4.039297580718994,0.7667625546455383,23.544130325317383
1781546627814912,307901639,0.038838941603899,0.011021396145224571,-0.00831582397222519,-0.9991502165794373,-0.2250811904668808,0.40514039993286133,10.140983581542969,-3.9855353832244873,0.9447453618049622,23.659528732299805
1781546627845194,307918306,0.04220316559076309,0.011047075502574444,-0.008283106610178947,-0.9990136623382568,-0.23525232076644897,0.4863681197166443,10.229073524475098,-3.93310546875,1.1865038871765137,21.886722564697266
1781546627846634,307934973,0.04483608528971672,0.011011150665581226,-0.008261646144092083,-0.9988995790481567,-0.18726138770580292,0.3664756715297699,10.182256698608398,-3.8200223445892334,0.71659916639328,16.86041259765625
1781546627874822,307951640,0.046239111572504044,0.010986451990902424,-0.008246436715126038,-0.9988359808921814,-0.19761104881763458,0.726233184337616,10.231770515441895,-3.708515167236328,0.7388561367988586,9.576417922973633
1781546627876087,307968307,0.04704868793487549,0.010871540755033493,-0.008156011812388897,-0.9988002181053162,-0.5475201606750488,1.4613369703292847,10.110616683959961,-4.210971832275391,0.10708031058311462,5.477642059326172
1781546627904818,307984974,0.047752298414707184,0.011072370223701,-0.00820867344737053,-0.9987640976905823,-0.43749597668647766,0.9180980324745178,10.101865768432617,-3.1209075450897217,2.2219722270965576,4.7259721755981445
1781546627905772,308001641,0.048679664731025696,0.011036197654902935,-0.008263101801276207,-0.9987193942070007,-0.006912955082952976,0.20033471286296844,10.225163459777832,-3.2047126293182373,0.606540858745575,6.265987873077393
1781546627934221,308018308,0.04976272955536842,0.011477256193757057,-0.008518717251718044,-0.9986588954925537,0.19522421061992645,-0.744408130645752,10.218242645263672,-1.674289584159851,3.82635235786438,7.293736457824707
1781546627936817,308034975,0.05184322968125343,0.01136831659823656,-0.008622962981462479,-0.9985533356666565,0.0546112097799778,-1.157713532447815,10.216971397399902,-2.975839138031006,0.16509318351745605,14.181077003479004
1781546627964364,308051642,0.05248238146305084,0.011134594678878784,-0.00840461254119873,-0.9985243678092957,-0.05461163446307182,-1.0051711797714233,10.132245063781738,-5.122732639312744,-0.6680689454078674,4.216165065765381
1781546627994504,308068309,0.05086319521069527,0.011139151640236378,-0.008425135165452957,-0.9986079931259155,-0.5846474170684814,-0.06865808367729187,10.188403129577637,-3.2270350456237793,0.7418017983436584,-11.3565092086792
1781546627996555,308084976,0.04703193157911301,0.011850791983306408,-0.009019186720252037,-0.9987824559211731,-0.2589119076728821,-1.3042370080947876,10.141146659851074,1.121602177619934,5.260753154754639,-26.56548500061035
1781546628024647,308101643,0.04571954905986786,0.012031817808747292,-0.009265984408557415,-0.9988390207290649,0.3320164084434509,-0.9802863001823425,10.261825561523438,-1.6298390626907349,1.8954747915267944,-9.242588996887207
1781546628026514,308118310,0.044992268085479736,0.011984039098024368,-0.009242555126547813,-0.9988728165626526,0.07819497585296631,0.08526740223169327,10.177887916564941,-3.6014533042907715,0.4492020308971405,-5.245571136474609
1781546628057012,308134977,0.043799132108688354,0.011804171837866306,-0.009121337905526161,-0.9989290237426758,-0.1151370033621788,0.9080423712730408,10.169004440307617,-4.276297569274902,-0.45886439085006714,-8.460082054138184
1781546628057382,308151644,0.04329454526305199,0.011920535005629063,-0.009284683503210545,-0.9989481568336487,-0.41389501094818115,1.6801356077194214,10.11270523071289,-2.2879700660705566,1.53600013256073,-3.7336277961730957
1781546628084011,308168311,0.04295093193650246,0.011987844482064247,-0.009362563490867615,-0.9989614486694336,-0.39355459809303284,1.109229326248169,10.227877616882324,-2.904876947402954,1.2343847751617432,-2.6581242084503174
1781546628085948,308184978,0.04397498816251755,0.011909673921763897,-0.0092589957639575,-0.9989187717437744,-0.0256491731852293,0.3290818929672241,10.221579551696777,-4.304739952087402,0.3807392418384552,6.73909330368042
1781546628114732,308201645,0.047526754438877106,0.011146285571157932,-0.008527794852852821,-0.9987713694572449,-0.14657333493232727,1.1535435914993286,10.18044662475586,-9.022542953491211,-3.966315269470215,24.128467559814453
1781546628144216,308218312,0.049325767904520035,0.010962366126477718,-0.008348713628947735,-0.9986878037452698,-0.586073637008667,0.9202005863189697,10.21265697479248,-4.9120192527771,-0.27624592185020447,12.064772605895996
1781546628145676,308234979,0.050457511097192764,0.01089701522141695,-0.008401138707995415,-0.9986314177513123,-0.17359012365341187,-0.14422853291034698,10.124220848083496,-3.2349486351013184,0.41810816526412964,7.494014263153076
1781546628174862,308251646,0.050066787749528885,0.01097980234771967,-0.008311348035931587,-0.9986510276794434,-0.2121097445487976,-0.6761424541473389,10.190641403198242,-4.0491766929626465,1.3903664350509644,-3.036949634552002
1781546628176835,308268313,0.04854592680931091,0.010920553468167782,-0.008245513774454594,-0.9987273216247559,-0.1672917902469635,-0.44576647877693176,10.185262680053711,-3.849052906036377,0.33735141158103943,-10.826249122619629
1781546628204459,308284980,0.04596155136823654,0.010823024436831474,-0.00800688099116087,-0.9988524913787842,-0.24478554725646973,0.011005345731973648,10.251505851745605,-4.969804763793945,0.06782891601324081,-18.162321090698242
1781546628206382,308301647,0.044939178973436356,0.010695439763367176,-0.007194389123469591,-0.998906672000885,0.23659077286720276,-0.696467399597168,10.177446365356445,-9.031720161437988,0.13259059190750122,-7.468653202056885
1781546628235395,308318314,0.04525264725089073,0.010754048824310303,-0.007437812630087137,-0.9988900423049927,0.045752983540296555,-0.2619358003139496,9.879951477050781,-1.8154536485671997,1.1566630601882935,1.7912431955337524
1781546628235871,308334981,0.0451674722135067,0.010902253910899162,-0.008242134936153889,-0.998885989189148,-0.3102489113807678,0.5833312273025513,10.345403671264648,2.094817876815796,1.577262043952942,-0.9245543479919434
1781546628264798,308351648,0.04237780347466469,0.010933121666312218,-0.00831220019608736,-0.9990072846412659,-0.40649840235710144,0.2929562032222748,10.219640731811523,-2.7894186973571777,0.8368897438049316,-19.607484817504883
1781546628294475,308368315,0.03917406499385834,0.010842163115739822,-0.00814362708479166,-0.9991405010223389,-0.32835546135902405,0.9418027400970459,10.198878288269043,-4.434257507324219,0.044265225529670715,-22.474376678466797
1781546628296080,308384982,0.03852732852101326,0.01080259308218956,-0.007946371100842953,-0.9991676211357117,-0.25935274362564087,0.5996353626251221,10.19491958618164,-4.786336421966553,0.5411516427993774,-5.7199320793151855
1781546628325094,308401649,0.036952823400497437,0.010833321139216423,-0.007395341992378235,-0.9992309808731079,-0.33177798986434937,0.8198162317276001,10.348416328430176,-7.132077693939209,1.0641634464263916,-12.13298511505127
1781546628325938,308418316,0.031116753816604614,0.01093264203518629,-0.003811667673289776,-0.9994486570358276,-0.5009719729423523,1.1385841369628906,10.865479469299316,-27.640954971313477,2.0772786140441895,-41.67942810058594
1781546628353968,308434983,0.024120483547449112,0.010685584507882595,0.008637522347271442,-0.9996147155761719,-0.5209747552871704,0.5468214154243469,11.610809326171875,-88.55187225341797,1.5665363073349,-50.29885482788086
1781546628356189,308451650,0.02345113642513752,0.01145472377538681,0.029938239604234695,-0.9992110133171082,0.45986026525497437,-1.3121099472045898,10.82284164428711,-149.72581481933594,9.684515953063965,-7.308589458465576
1781546628384470,308468317,0.027387654408812523,0.013571809977293015,0.050624821335077286,-0.9982500076293945,0.24715666472911835,-0.9687446355819702,9.440174102783203,-145.78604125976562,17.87840461730957,25.568195343017578
1781546628386130,308484984,0.031041204929351807,0.017301302403211594,0.06409288942813873,-0.9973111152648926,-0.004025530070066452,-1.475538969039917,9.030695915222168,-95.90235900878906,27.657514572143555,24.83172607421875
1781546628414519,308501651,0.03551051393151283,0.01860678195953369,0.06942804902791977,-0.9967811703681946,0.11264482140541077,-1.8127697706222534,8.764519691467285,-40.57128143310547,8.877642631530762,30.23427391052246
1781546628444593,308518318,0.043716564774513245,0.015972251072525978,0.0659886822104454,-0.9967342615127563,-0.15464483201503754,-1.1685545444488525,8.85094928741455,18.38762092590332,-22.00651741027832,54.179386138916016
1781546628446340,308534985,0.05037965625524521,0.011862401850521564,0.05642368644475937,-0.9970645308494568,-0.4704890847206116,-0.34374457597732544,10.147295951843262,60.26462936401367,-33.299381256103516,43.4952507019043
1781546628474616,308551652,0.05541262403130531,0.012268648482859135,0.050566416233778,-0.9971067905426025,-0.5524647235870361,-1.6774076223373413,10.990038871765137,36.43031311035156,-0.3999713659286499,33.86829376220703
1781546628476468,308568319,0.05902184545993805,0.013691398315131664,0.05331709608435631,-0.9967378377914429,-0.6520228981971741,-0.861306369304657,11.291512489318848,-22.216115951538086,10.377099990844727,23.89173698425293
1781546628504136,308584986,0.06601595878601074,0.018191106617450714,0.06223136931657791,-0.9957099556922913,-1.0357822179794312,-0.8882806301116943,10.701133728027344,-63.76835250854492,32.78561019897461,47.90467071533203
1781546628507006,308601653,0.07495371997356415,0.02377496473491192,0.06918982416391373,-0.994499683380127,-0.636883556842804,-1.5407484769821167,10.702095031738281,-50.208091735839844,38.50983810424805,62.00263595581055
1781546628535291,308618320,0.07820501178503036,0.023105693981051445,0.0683605745434761,-0.9943224787712097,-0.7052807211875916,-1.6035345792770386,11.342476844787598,1.2410845756530762,-5.724344730377197,20.884607315063477
1781546628564650,308634987,0.07864852249622345,0.02029745653271675,0.06528083980083466,-0.9945555925369263,-0.9611665606498718,-1.493762731552124,11.933269500732422,16.11503028869629,-20.303043365478516,0.8220863938331604
1781546628566741,308651654,0.0788956731557846,0.014913494698703289,0.059612639248371124,-0.9949871897697449,-0.8738816380500793,-1.20225191116333,11.788738250732422,32.53885269165039,-39.25587844848633,-1.4238741397857666
1781546628595156,308668321,0.07915239036083221,0.008710281923413277,0.05215711146593094,-0.9954590797424316,-0.408858060836792,-1.138675570487976,10.575615882873535,44.336647033691406,-45.838924407958984,-1.5323785543441772
1781546628596898,308684988,0.07907021045684814,0.002832746598869562,0.045941341668367386,-0.9958058595657349,-0.02445267140865326,-1.2248204946517944,9.670424461364746,36.004005432128906,-42.80623245239258,-3.7418136596679688
1781546628624309,308701655,0.07954832911491394,-0.002013297751545906,0.04276208207011223,-0.9959113001823425,0.16048932075500488,-1.0874954462051392,8.894471168518066,15.688336372375488,-34.26503372192383,0.49218252301216125
1781546628625941,308718322,0.0804748386144638,-0.005165919661521912,0.04215269908308983,-0.9958515763282776,0.3332425653934479,-0.8609564900398254,8.409123420715332,-1.0237284898757935,-21.39790916442871,4.186408996582031
1781546628654081,308734989,0.0810404121875763,-0.006546019576489925,0.042095206677913666,-0.9958000183105469,0.3970183730125427,-0.7144339084625244,8.672528266906738,-3.831840753555298,-8.850842475891113,2.243602752685547
1781546628656135,308751656,0.08152603358030319,-0.007089048158377409,0.042191214859485626,-0.9957525730133057,0.22548389434814453,-0.5211488008499146,8.97524356842041,-4.419023036956787,-3.0102226734161377,1.9429219961166382
1781546628684271,308768323,0.08164553344249725,-0.006870822980999947,0.041540198028087616,-0.9957716464996338,0.22111055254936218,-0.6475402116775513,8.998644828796387,1.1230847835540771,1.892362356185913,-0.4161423444747925
1781546628715470,308784990,0.08154843002557755,-0.006022337358444929,0.04084427282214165,-0.9958140254020691,0.222982257604599,-0.7065664529800415,9.159256935119629,1.7803964614868164,6.245266914367676,-1.7342746257781982
1781546628716414,308801657,0.08121736347675323,-0.004810965619981289,0.04066142812371254,-0.9958551526069641,0.24238844215869904,-0.720488429069519,9.289273262023926,-1.5388373136520386,9.083271980285645,-3.211949110031128
1781546628744476,308818324,0.08101408183574677,-0.0035814412403851748,0.04086093604564667,-0.9958687424659729,0.21995000541210175,-0.6990725994110107,9.586953163146973,-4.150309085845947,9.384809494018555,-2.3041958808898926
1781546628745976,308834991,0.08110802620649338,-0.002557606203481555,0.04136982187628746,-0.9958431124687195,0.1784132570028305,-0.7314501404762268,9.642306327819824,-6.38722038269043,8.064667701721191,-0.2974531948566437
1781546628774411,308851658,0.08153488487005234,-0.0014585319440811872,0.04210938885807991,-0.9957795739173889,0.024485886096954346,-0.6775693893432617,9.655082702636719,-7.929977893829346,8.613421440124512,2.0287253856658936
1781546628776531,308868325,0.08204641193151474,0.00016036239685490727,0.042119935154914856,-0.99573814868927,-0.011617343872785568,-0.6488078832626343,9.5961275100708,-2.6402227878570557,11.739298820495605,2.7392220497131348
1781546628804059,308884992,0.08255524933338165,0.00242185452952981,0.04182255640625954,-0.9957056045532227,-0.04953070729970932,-0.7264036536216736,9.734857559204102,-0.1673407107591629,15.965606689453125,2.902580976486206
1781546628805918,308901659,0.08303843438625336,0.004971048794686794,0.041323110461235046,-0.9956768155097961,-0.13890910148620605,-0.7886261343955994,10.060288429260254,1.3803659677505493,17.82779884338379,2.810093879699707
1781546628834355,308918326,0.08330339193344116,0.006916373502463102,0.04154185578227043,-0.9956339597702026,-0.24896983802318573,-0.9502867460250854,10.708503723144531,-3.877419948577881,14.166297912597656,1.1282978057861328
1781546628864497,308934993,0.08356873691082001,0.007586302235722542,0.04259461909532547,-0.9955624341964722,-0.3726971447467804,-0.8821041584014893,10.523720741271973,-10.324869155883789,5.914494514465332,0.7437739968299866
1781546628866510,308951660,0.08393646031618118,0.008232648484408855,0.04330139234662056,-0.9954958558082581,-0.3364161550998688,-0.9114612340927124,10.157883644104004,-7.97400426864624,5.523630619049072,1.4523494243621826
1781546628895345,308968327,0.08459893614053726,0.009249209426343441,0.044004615396261215,-0.9953999519348145,-0.2382020801305771,-1.0388292074203491,10.228528022766113,-7.76127815246582,7.9690165519714355,3.597669839859009
1781546628896098,308984994,0.08554130792617798,0.01030044537037611,0.04421286657452583,-0.9952999353408813,-0.14698481559753418,-1.0226411819458008,9.976970672607422,-4.372652530670166,7.833986282348633,5.556875705718994
1781546628925368,309001661,0.08627530932426453,0.01173784676939249,0.04494572803378105,-0.9951878786087036,-0.1205301433801651,-0.9907842874526978,9.96682071685791,-7.723938465118408,10.84942626953125,4.218267440795898
1781546628926100,309018328,0.08669687062501907,0.013212515972554684,0.0461106039583683,-0.9950793385505676,-0.2502356767654419,-0.9604109525680542,10.24858570098877,-10.631330490112305,11.457257270812988,2.055133104324341
1781546628955113,309034995,0.08689738810062408,0.014486679807305336,0.04751186445355415,-0.9949782490730286,-0.3715875446796417,-1.0047246217727661,10.608609199523926,-12.345382690429688,10.295820236206055,0.4533900022506714
1781546628956951,309051662,0.08696307241916656,0.015399073250591755,0.04877432435750961,-0.9948977828025818,-0.5533637404441833,-0.9843635559082031,11.146993637084961,-11.591777801513672,7.7799458503723145,-0.5853146314620972
1781546628986599,309068329,0.08718179911375046,0.015382712706923485,0.04970739409327507,-0.9948327541351318,-0.5605041980743408,-0.9168474674224854,11.058055877685547,-9.905035972595215,1.1767311096191406,0.17675970494747162
1781546629014712,309084996,0.08751438558101654,0.015050569549202919,0.04946425184607506,-0.9948206543922424,-0.41266605257987976,-0.8361223936080933,10.489466667175293,-2.043355703353882,-1.7330063581466675,0.9393649697303772
1781546629016996,309101663,0.08786553144454956,0.01493800152093172,0.048429783433675766,-0.9948422908782959,-0.24677111208438873,-0.8351775407791138,10.040922164916992,3.5102527141571045,-0.7173221707344055,1.202663540840149
1781546629045256,309118330,0.08810101449489594,0.015267518348991871,0.04703258350491524,-0.9948834776878357,-0.23694966733455658,-0.7236565947532654,9.90070915222168,6.276514530181885,2.1241061687469482,0.5836558938026428
1781546629074260,309134997,0.08798273652791977,0.01564541645348072,0.04739963635802269,-0.9948707222938538,-0.4833980202674866,-1.0577056407928467,10.980371475219727,-5.742804050445557,3.6439895629882812,-1.9719349145889282
1781546629076633,309151664,0.08772539347410202,0.014203652739524841,0.05013030394911766,-0.9947811365127563,-0.7485877275466919,-1.2509344816207886,12.210470199584961,-23.020700454711914,-7.319676399230957,-3.7238376140594482
1781546629078309,309168331,0.08791239559650421,0.009925061836838722,0.05352437123656273,-0.9946396350860596,-0.7522270083427429,-1.0685209035873413,12.170232772827148,-29.33031463623047,-26.470705032348633,-1.6968762874603271
1781546629104566,309184998,0.0891331359744072,0.00447391951456666,0.054240625351667404,-0.9945315718650818,-0.5112642645835876,-0.9441887140274048,10.874651908874512,-11.785143852233887,-36.49129104614258,5.103044033050537
1781546629105813,309201665,0.09089576452970505,-0.00015529275697190315,0.053030967712402344,-0.9944474697113037,-0.14714166522026062,-1.1849422454833984,9.931632995605469,1.8793330192565918,-32.254817962646484,9.160053253173828
1781546629133993,309218332,0.09237141162157059,-0.004065518733114004,0.05174132436513901,-0.9943711161613464,0.2645816206932068,-1.325652003288269,9.302600860595703,2.878420829772949,-27.284208297729492,7.454488277435303
1781546629135887,309234999,0.09328445792198181,-0.006823747884482145,0.05112076178193092,-0.9943028092384338,0.44011738896369934,-0.9295094013214111,8.55344009399414,-0.9762548804283142,-18.782623291015625,4.032090663909912
1781546629164319,309251666,0.09388945251703262,-0.007639746647328138,0.050102874636650085,-0.9942916631698608,0.4947790205478668,-0.49637454748153687,7.95334005355835,2.9914932250976562,-5.648253917694092,2.5535669326782227
1781546629194155,309268333,0.0940476804971695,-0.006157178897410631,0.047963302582502365,-0.9943926334381104,0.5076361298561096,-0.47966745495796204,7.7618889808654785,12.157801628112793,9.501544952392578,0.15998347103595734
1781546629196361,309285000,0.09357132762670517,-0.0029484860133379698,0.04680531844496727,-0.9945074915885925,0.36536651849746704,-0.8793783187866211,8.85544204711914,6.539772987365723,22.14826011657715,-3.5764615535736084
1781546629224408,309301667,0.09287340193986893,-0.00016357806453015655,0.04771600663661957,-0.9945339560508728,0.09212136268615723,-0.8543553948402405,9.696236610412598,-7.9103169441223145,20.65152359008789,-5.129131317138672
1781546629226208,309318334,0.0925087258219719,0.0017151562497019768,0.04904315248131752,-0.9945018887519836,-0.22795067727565765,-0.6465796828269958,10.122689247131348,-11.355660438537598,14.612006187438965,-3.11026930809021
1781546629254307,309335001,0.09268862009048462,0.003128916257992387,0.04894263669848442,-0.9944866299629211,-0.3680356442928314,-0.8362456560134888,9.812577247619629,-1.8910632133483887,10.34041976928711,0.463007390499115
1781546629256170,309351668,0.09290970116853714,0.005220734979957342,0.04818940907716751,-0.9944940209388733,-0.45765823125839233,-1.1517469882965088,10.000703811645508,3.0106022357940674,14.545815467834473,0.9715735912322998
1781546629284008,309368335,0.0930466279387474,0.0074387495405972,0.04763122648000717,-0.9944939613342285,-0.5049383044242859,-1.273951530456543,10.521575927734375,1.7582941055297852,15.560733795166016,0.43630632758140564
1781546629285845,309385002,0.09317325055599213,0.009161025285720825,0.04712741822004318,-0.9944918155670166,-0.5348587036132812,-1.1022745370864868,10.770954132080078,1.0698621273040771,12.208754539489746,0.20162968337535858
1781546629314424,309401669,0.09343980997800827,0.009913901798427105,0.04721452295780182,-0.9944553971290588,-0.4190152585506439,-0.9445629119873047,10.872674942016602,-3.6113665103912354,5.91531229019165,0.8291281461715698
1781546629344456,309418336,0.09386064112186432,0.009896689094603062,0.04657691344618797,-0.9944460391998291,-0.23658360540866852,-0.7819309234619141,10.269978523254395,0.8472231030464172,0.13209106028079987,1.665600061416626
1781546629346112,309435003,0.09429504722356796,0.010019510984420776,0.04590399190783501,-0.9944350719451904,-0.07215956598520279,-0.8111718893051147,9.861991882324219,1.1772302389144897,1.062536358833313,1.8070849180221558
1781546629374276,309451670,0.09459937363862991,0.010443276725709438,0.04537548869848251,-0.9944259524345398,-0.021622024476528168,-0.8839518427848816,9.654760360717773,0.394544392824173,3.254932165145874,1.001680612564087
1781546629376269,309468337,0.09451347589492798,0.011601553298532963,0.0452844575047493,-0.9944255352020264,-0.11256805062294006,-1.0109474658966064,9.832620620727539,-2.087909460067749,8.682854652404785,-1.4739729166030884
1781546629405284,309485004,0.09431321918964386,0.012823120690882206,0.04574621841311455,-0.9944084882736206,-0.2905657887458801,-1.0406121015548706,10.576071739196777,-5.822242736816406,9.512081146240234,-2.2697341442108154
1781546629407163,309501671,0.09432210773229599,0.013071783818304539,0.04556695371866226,-0.9944125413894653,-0.4852770268917084,-0.7893142700195312,10.975005149841309,-2.0819666385650635,2.377249240875244,-1.1032541990280151
1781546629435466,309518338,0.09478358924388885,0.012841041199862957,0.043883807957172394,-0.9944474101066589,-0.4560079872608185,-0.7224557995796204,10.484480857849121,7.857717037200928,-2.020650625228882,1.95522940158844
1781546629436760,309535005,0.09543037414550781,0.013038168661296368,0.041152842342853546,-0.9944995641708374,-0.2671034038066864,-0.8340408802032471,10.142175674438477,15.289185523986816,0.1642351746559143,3.432751178741455
1781546629465078,309551672,0.09648749232292175,0.01378612220287323,0.03828825429081917,-0.9945019483566284,-0.24861139059066772,-0.7441601753234863,9.90737533569336,16.513479232788086,3.731268882751465,6.439341068267822
1781546629494407,309568339,0.0977867916226387,0.013241071254014969,0.0335405170917511,-0.9945539832115173,-0.3260708451271057,-0.6615553498268127,10.282044410705566,28.521940231323242,-6.427412509918213,7.900448322296143
1781546629496099,309585006,0.09902019798755646,0.01153496466577053,0.028127683326601982,-0.9946210384368896,-0.30271416902542114,-0.5557149648666382,10.324283599853516,32.29872512817383,-14.800057411193848,7.232578754425049
1781546629524787,309601673,0.10038944333791733,0.010271734558045864,0.023755939677357674,-0.9946116209030151,-0.29652032256126404,-0.4424368739128113,10.282343864440918,25.45550537109375,-11.082878112792969,8.215880393981934
1781546629526356,309618340,0.1016896590590477,0.009303790517151356,0.020344147458672523,-0.9945647120475769,-0.31136706471443176,-0.4501872658729553,10.32029914855957,19.093103408813477,-8.387201309204102,7.750269412994385
1781546629554537,309635007,0.10267792642116547,0.008919700980186462,0.017664702609181404,-0.9945178627967834,-0.33708274364471436,-0.34174928069114685,10.189996719360352,14.513863563537598,-3.839320659637451,5.652041912078857
1781546629556188,309651674,0.10323268920183182,0.008902023546397686,0.014975287020206451,-0.9945046305656433,-0.3153259754180908,-0.3037833273410797,10.173243522644043,14.871172904968262,-1.2906761169433594,2.709652900695801
1781546629584194,309668341,0.10331335663795471,0.008956576697528362,0.01243420597165823,-0.9945309162139893,-0.3217622935771942,-0.3137016296386719,10.186529159545898,13.941495895385742,-0.6455430388450623,-0.5620070695877075
1781546629586037,309685008,0.1031198501586914,0.009019700810313225,0.009439145214855671,-0.994583249092102,-0.2761739194393158,-0.16262462735176086,10.061248779296875,17.070926666259766,-0.8878138661384583,-2.4276251792907715
1781546629614628,309701675,0.10289376974105835,0.008543302305042744,0.006906131282448769,-0.9946317076683044,-0.15026222169399261,-0.26101288199424744,10.405596733093262,13.516131401062012,-4.258267402648926,-1.9479238986968994
1781546629644910,309718342,0.10281900316476822,0.008325004018843174,0.0048475731164216995,-0.9946534037590027,-0.11046133190393448,-0.0935085117816925,10.14694881439209,10.458712577819824,-2.1523382663726807,-1.6726250648498535
1781546629647389,309735009,0.10277926176786423,0.008339627645909786,0.0027689323760569096,-0.9946653842926025,-0.12582628428936005,-0.0619967021048069,10.165794372558594,10.74496078491211,-0.5786423087120056,-0.6420465707778931
1781546629675144,309751676,0.10279829800128937,0.008586704730987549,0.0007965416298247874,-0.9946648478507996,-0.11497382074594498,0.017001593485474586,10.212244033813477,10.179380416870117,1.088815450668335,-0.23885132372379303
1781546629676580,309768343,0.10242564976215363,0.008939598686993122,-0.0008652884280309081,-0.9947001934051514,-0.11037728935480118,0.03497633337974548,10.20164966583252,8.153914451599121,2.034884452819824,-2.9902195930480957
1781546629705075,309785010,0.10144966095685959,0.009420649148523808,-0.0022764382883906364,-0.9947935938835144,-0.11425520479679108,0.09177649021148682,10.187739372253418,6.565464973449707,3.0831871032714844,-7.156190395355225
1781546629706314,309801677,0.10010430961847305,0.009881124831736088,-0.0036163057666271925,-0.9949213862419128,-0.1906997263431549,0.12258769571781158,10.18957233428955,6.086495876312256,2.9863719940185547,-9.704195976257324
1781546629734223,309818344,0.09828723967075348,0.010037388652563095,-0.004925315268337727,-0.9950953722000122,-0.15270066261291504,0.09617539495229721,10.197222709655762,5.696491718292236,0.9136760234832764,-12.962658882141113
1781546629735951,309835011,0.09699452668428421,0.01030827034264803,-0.005850705783814192,-0.9952144622802734,-0.19125093519687653,0.07567699253559113,10.276168823242188,3.1148319244384766,1.9802531003952026,-9.36833667755127
1781546629765339,309851678,0.09586262702941895,0.010343067348003387,-0.006418745033442974,-0.9953201413154602,-0.14311164617538452,0.12101897597312927,10.228768348693848,0.5018234252929688,0.6113560795783997,-8.28901481628418
1781546629795302,309868345,0.09538932889699936,0.010388665832579136,-0.0068284678272902966,-0.9953625202178955,-0.22763673961162567,0.15823867917060852,10.196430206298828,-0.618687629699707,0.8240311145782471,-3.74932861328125
1781546629796964,309885012,0.09446702152490616,0.010365952737629414,-0.007189026568084955,-0.9954480528831482,-0.1272900551557541,0.07949071377515793,10.150199890136719,-0.9697611331939697,0.36493629217147827,-6.853691577911377
1781546629824856,309901679,0.09366835653781891,0.010451098904013634,-0.0075926813296973705,-0.9955196976661682,-0.2794104516506195,0.22482582926750183,10.164776802062988,-0.6126942038536072,1.0828217267990112,-6.005486965179443
1781546629826303,309918346,0.09307149797677994,0.010406753979623318,-0.007954902946949005,-0.9955732822418213,-0.13875117897987366,0.1735735535621643,10.195459365844727,-0.9930941462516785,0.23518222570419312,-4.616971492767334
1781546629853988,309935013,0.09287524968385696,0.01042067352682352,-0.008305160328745842,-0.9955886006355286,-0.16239753365516663,0.18176424503326416,10.193939208984375,-1.0642460584640503,0.6667177677154541,-1.860826849937439
1781546629856010,309951680,0.09276346117258072,0.01042919885367155,-0.008520422503352165,-0.9955971240997314,-0.22010762989521027,0.22176802158355713,10.217916488647461,-1.9972143173217773,0.7216442823410034,-1.2872174978256226
1781546629885316,309968347,0.0929579958319664,0.010425507090985775,-0.00855174195021391,-0.9955787658691406,-0.18871131539344788,0.18953447043895721,10.16994571685791,-3.284841537475586,0.7753028273582458,0.8155148029327393
1781546629886394,309985014,0.09307467937469482,0.01054881326854229,-0.008674819953739643,-0.9955654740333557,-0.08113879710435867,0.13149365782737732,10.175036430358887,-2.5699403285980225,1.5809119939804077,0.26900380849838257
1781546629915180,310001681,0.09304172545671463,0.01068592257797718,-0.008778072893619537,-0.9955662488937378,-0.24012458324432373,0.2312787026166916,10.17018985748291,-2.6867082118988037,1.6783809661865234,-0.768957257270813
1781546629944650,310018348,0.09280376881361008,0.01077134907245636,-0.008898098953068256,-0.9955863356590271,-0.1943337619304657,0.21578042209148407,10.132455825805664,-2.591339349746704,1.2997870445251465,-2.192767381668091
1781546629946407,310035015,0.09033355861902237,0.011081322096288204,-0.009370384737849236,-0.9958058595657349,-0.7382509112358093,-0.013516160659492016,10.18358039855957,0.11630099266767502,2.4611077308654785,-17.587493896484375
1781546629975035,310051682,0.0854644626379013,0.011174607090651989,-0.00956141296774149,-0.9962327480316162,-0.03317899629473686,0.3329152762889862,10.209900856018066,-1.7743269205093384,0.9811432361602783,-34.14866638183594
1781546629976520,310068349,0.08260709792375565,0.011074243113398552,-0.009727579541504383,-0.9964733123779297,-0.1347588300704956,0.23946808278560638,10.175143241882324,-2.2016708850860596,-0.1835024505853653,-20.2440128326416
1781546630004767,310085016,0.08011826127767563,0.01093421969562769,-0.010322912596166134,-0.9966719746589661,-0.20116281509399414,0.1915617138147354,10.1658353805542,0.6911401748657227,-0.6709893941879272,-17.67620086669922
1781546630006095,310101683,0.07768406718969345,0.010661468841135502,-0.010924704372882843,-0.9968612194061279,-0.1830388307571411,0.24638746678829193,10.198110580444336,0.6598541140556335,-1.5791778564453125,-17.304811477661133
1781546630035380,310118350,0.07442370057106018,0.010098590515553951,-0.011519334279000759,-0.9971092343330383,-0.3011632561683655,0.16191497445106506,10.17348861694336,0.5123893618583679,-3.6296205520629883,-22.97981834411621
1781546630037920,310135017,0.06690199673175812,0.01073487289249897,-0.011914695613086224,-0.9976307153701782,-0.3830296993255615,0.17627619206905365,10.239222526550293,0.03435337543487549,4.336816787719727,-52.45012283325195
1781546630064281,310151684,0.05857314541935921,0.010502113029360771,-0.012260968796908855,-0.9981526136398315,-0.0878983587026596,0.32454460859298706,10.150814056396484,-0.6427069902420044,-1.6679954528808594,-57.92854309082031
1781546630095122,310168351,0.05002821609377861,0.010420499369502068,-0.012828020378947258,-0.9986110925674438,-0.5119820237159729,0.8176827430725098,10.19083023071289,0.9543601274490356,-0.7333390712738037,-59.40678024291992
1781546630096387,310185018,0.040140584111213684,0.011336863040924072,-0.011074384674429893,-0.9990683794021606,0.029217839241027832,-0.4132203459739685,10.194149017333984,-14.541098594665527,6.795957088470459,-68.92037200927734
1781546630124083,310201685,0.032416921108961105,0.011407683603465557,-0.01114570815116167,-0.9993472695350647,-0.011066136881709099,0.3763262927532196,10.16186809539795,-2.3928780555725098,0.6617172360420227,-53.814186096191406
1781546630126164,310218352,0.027875475585460663,0.011385944671928883,-0.011204504407942295,-0.9994838833808899,0.015368109568953514,0.36125072836875916,10.196615219116211,-2.7265591621398926,0.27054157853126526,-32.484596252441406
1781546630154879,310235019,0.02657485194504261,0.011404374614357948,-0.011220446787774563,-0.9995189309120178,0.006848059594631195,0.3308233916759491,10.189579963684082,-3.259294271469116,0.8126977682113647,-10.201723098754883
1781546630156239,310251686,0.026677152141928673,0.011400727555155754,-0.011238242499530315,-0.9995158910751343,-0.18715254962444305,0.24588611721992493,10.17927074432373,-3.3579273223876953,0.7722420692443848,-0.5518255829811096
1781546630184370,310268353,0.02668360061943531,0.011402261443436146,-0.011241867206990719,-0.9995155930519104,-0.1863885372877121,0.23112532496452332,10.178489685058594,-3.4470725059509277,0.8027980923652649,-1.2127485275268555
1781546630185963,310285020,0.026687927544116974,0.01140083558857441,-0.011241739615797997,-0.9995155930519104,-0.18419121205806732,0.22725217044353485,10.152254104614258,-3.473184823989868,0.7829610705375671,-1.227911353111267
1781546630215353,310301687,0.026688100770115852,0.011404464952647686,-0.011250215582549572,-0.9995154738426208,-0.19318054616451263,0.24051284790039062,10.181840896606445,-3.4128668308258057,0.8158349990844727,-1.2555090188980103
1781546630244808,310318354,0.026688095182180405,0.011408625170588493,-0.011265474371612072,-0.9995152354240417,-0.18645115196704865,0.22227132320404053,10.183077812194824,-3.366123676300049,0.8182041645050049,-1.256277322769165
1781546630246138,310335021,0.02667943201959133,0.011416330933570862,-0.011267997324466705,-0.9995153546333313,-0.19379055500030518,0.23371551930904388,10.167945861816406,-3.4522976875305176,0.8442138433456421,-1.3172099590301514
1781546630274864,310351688,0.02668004110455513,0.011419744230806828,-0.011261462233960629,-0.9995153546333313,-0.17907841503620148,0.2430073618888855,10.161806106567383,-3.5159964561462402,0.8170899748802185,-1.253139853477478
1781546630275981,310368355,0.02667842246592045,0.011413369327783585,-0.011258408427238464,-0.9995155334472656,-0.19070330262184143,0.23479913175106049,10.164631843566895,-3.493662118911743,0.7490370869636536,-1.2677903175354004
1781546630304149,310385022,0.026675628498196602,0.011405699886381626,-0.011260266415774822,-0.9995156526565552,-0.1804334819316864,0.24364589154720306,10.188448905944824,-3.4598917961120605,0.7390993237495422,-1.2751922607421875
1781546630306102,310401689,0.026664413511753082,0.011406117118895054,-0.011264925822615623,-0.9995158910751343,-0.18935486674308777,0.24106399714946747,10.18739128112793,-3.4387612342834473,0.7935135364532471,-1.3337814807891846
1781546630334461,310418356,0.026662087067961693,0.011403536424040794,-0.01127286534756422,-0.9995158910751343,-0.18137454986572266,0.2348829060792923,10.176587104797363,-3.41729736328125,0.7730104327201843,-1.2717088460922241
1781546630364928,310435023,0.026661239564418793,0.011396242305636406,-0.011265363544225693,-0.9995160698890686,-0.18814581632614136,0.24140454828739166,10.164155960083008,-3.5242440700531006,0.743543267250061,-1.2631546258926392
1781546630366404,310451690,0.02665831707417965,0.011396801099181175,-0.011272664181888103,-0.9995160698890686,-0.19416765868663788,0.22615276277065277,10.19311237335205,-3.4209604263305664,0.7946532964706421,-1.276767611503601
1781546630395027,310468357,0.026656027883291245,0.011392631568014622,-0.011268287897109985,-0.9995161890983582,-0.18641147017478943,0.22372502088546753,10.177353858947754,-3.5021398067474365,0.7643278241157532,-1.2729383707046509
1781546630395748,310485024,0.026665547862648964,0.011389389634132385,-0.011277737095952034,-0.999515950679779,-0.16851092875003815,0.2385026067495346,10.200116157531738,-3.40789794921875,0.7691045999526978,-1.1902093887329102
1781546630425113,310501691,0.02666824869811535,0.011400461196899414,-0.01127692125737667,-0.9995157122612,-0.17031873762607574,0.24680927395820618,10.1907958984375,-3.4752845764160156,0.8688531517982483,-1.2387070655822754
1781546630426415,310518358,0.026670608669519424,0.011388939805328846,-0.011285470798611641,-0.9995157122612,-0.19373328983783722,0.2450050264596939,10.178561210632324,-3.4150564670562744,0.711860179901123,-1.238911747932434
1781546630454585,310535025,0.026670251041650772,0.011380843818187714,-0.011286222375929356,-0.9995157718658447,-0.17562326788902283,0.23658332228660583,10.182175636291504,-3.467921495437622,0.7365891933441162,-1.2594020366668701
1781546630455341,310551692,0.026673030108213425,0.011380741372704506,-0.011297247372567654,-0.9995155930519104,-0.18596264719963074,0.22695201635360718,10.163165092468262,-3.3961801528930664,0.789953351020813,-1.236939787864685
1781546630484254,310568359,0.0266779325902462,0.011380262672901154,-0.011291109956800938,-0.9995155334472656,-0.18536847829818726,0.23572081327438354,10.166608810424805,-3.514049768447876,0.7906320095062256,-1.2240053415298462
1781546630514440,310585026,0.02668205462396145,0.011375697329640388,-0.011294499970972538,-0.9995154142379761,-0.18402665853500366,0.2425013929605484,10.176209449768066,-3.449223518371582,0.7607675790786743,-1.2279880046844482
1781546630516437,310601693,0.026685168966650963,0.011368874460458755,-0.011300897225737572,-0.9995153546333313,-0.19150850176811218,0.2375132143497467,10.166994094848633,-3.4291436672210693,0.7446060180664062,-1.2351597547531128
1781546630545050,310618360,0.026681378483772278,0.011371741071343422,-0.011302982456982136,-0.9995154142379761,-0.1783263236284256,0.23388974368572235,10.190482139587402,-3.4562160968780518,0.8113911151885986,-1.2827095985412598
1781546630545930,310635027,0.026671215891838074,0.011366008780896664,-0.011307294480502605,-0.9995157122612,-0.1857386976480484,0.23175914585590363,10.162895202636719,-3.4420652389526367,0.7514318823814392,-1.326520323753357
1781546630574481,310651694,0.026662059128284454,0.011366225779056549,-0.011314105242490768,-0.9995158910751343,-0.17698000371456146,0.22252094745635986,10.184597969055176,-3.423816442489624,0.7919127345085144,-1.3191821575164795
1781546630576812,310668361,0.026659658178687096,0.011374582536518574,-0.011312243528664112,-0.9995158314704895,-0.1810329705476761,0.23914110660552979,10.169431686401367,-3.482379198074341,0.8499382138252258,-1.2743983268737793
1781546630606151,310685028,0.02666211500763893,0.011381213553249836,-0.011308867484331131,-0.9995157122612,-0.1893480122089386,0.25226864218711853,10.19083309173584,-3.493380308151245,0.8388223648071289,-1.2407817840576172
1781546630606888,310701695,0.02666444331407547,0.011382310651242733,-0.01130860298871994,-0.9995155930519104,-0.1830543726682663,0.22690759599208832,10.197771072387695,-3.473146438598633,0.8002111911773682,-1.2413452863693237
1781546630634647,310718362,0.02665458433330059,0.011367709375917912,-0.01132063940167427,-0.999515950679779,-0.17989563941955566,0.2326059192419052,10.195825576782227,-3.390685796737671,0.6890392303466797,-1.3229984045028687
1781546630694408,310735029,0.02666367031633854,0.011368494480848312,-0.011318391188979149,-0.9995157122612,-0.18725810945034027,0.22779828310012817,10.16602897644043,-3.4873101711273193,0.7989305853843689,-1.1946916580200195
1781546630697006,310751696,0.026667745783925056,0.011365841142833233,-0.011322000995278358,-0.9995155334472656,-0.16501958668231964,0.22528569400310516,10.201797485351562,-3.4474565982818604,0.7738557457923889,-1.228641390800476
1781546630698367,310768363,0.026669291779398918,0.011365088634192944,-0.011328035034239292,-0.9995155334472656,-0.17555519938468933,0.223659947514534,10.182686805725098,-3.4300529956817627,0.7862522602081299,-1.2460962533950806
1781546630725006,310785030,0.026663823053240776,0.01136140339076519,-0.01133069209754467,-0.9995156526565552,-0.16299116611480713,0.24433693289756775,10.164746284484863,-3.453155755996704,0.7662103772163391,-1.2942609786987305
1781546630726408,310801697,0.026667654514312744,0.011362545192241669,-0.011327064596116543,-0.9995155334472656,-0.18708765506744385,0.24125461280345917,10.165026664733887,-3.4964282512664795,0.801351010799408,-1.2309848070144653
1781546630727481,310818364,0.026668524369597435,0.011358782649040222,-0.011333976872265339,-0.9995155930519104,-0.17730213701725006,0.2315196543931961,10.162141799926758,-3.42452073097229,0.7654675841331482,-1.2498998641967773
1781546630754978,310835031,0.026668068021535873,0.011365649290382862,-0.011339706368744373,-0.9995154142379761,-0.19883251190185547,0.22702139616012573,10.207247734069824,-3.4305267333984375,0.8385918736457825,-1.260759711265564
1781546630756793,310851698,0.026673968881368637,0.011363819241523743,-0.011345986276865005,-0.999515175819397,-0.1910955160856247,0.2554767429828644,10.178081512451172,-3.4285802841186523,0.7791832089424133,-1.2162319421768188
1781546630784743,310868365,0.026677271351218224,0.011355399154126644,-0.011340106837451458,-0.9995152354240417,-0.2005559206008911,0.23199301958084106,10.184796333312988,-3.5132174491882324,0.7359234094619751,-1.2341735363006592
1781546630815556,310885032,0.026672223582863808,0.011350812390446663,-0.011341527104377747,-0.9995154738426208,-0.18637952208518982,0.22989080846309662,10.171180725097656,-3.4616589546203613,0.7602553963661194,-1.2907520532608032
1781546630816346,310901699,0.026667291298508644,0.01134891714900732,-0.011344659142196178,-0.9995155930519104,-0.1859600692987442,0.23945553600788116,10.183004379272461,-3.449338912963867,0.7783763408660889,-1.2902013063430786
1781546630844674,310918366,0.02668234147131443,0.011353773064911366,-0.011348442174494267,-0.9995150566101074,-0.18314528465270996,0.23853197693824768,10.196805000305176,-3.4455227851867676,0.826310396194458,-1.1540825366973877
1781546630846553,310935033,0.02668743208050728,0.011354033835232258,-0.011354904621839523,-0.9995148777961731,-0.19026467204093933,0.23211237788200378,10.18887996673584,-3.427030563354492,0.7934366464614868,-1.2214568853378296
1781546630874932,310951700,0.026693610474467278,0.011356760747730732,-0.011360430158674717,-0.9995145797729492,-0.1751769632101059,0.2394130825996399,10.181297302246094,-3.4330496788024902,0.8106355667114258,-1.2131967544555664
1781546630877207,310968367,0.026690127328038216,0.011362464167177677,-0.011371098458766937,-0.9995145201683044,-0.18336810171604156,0.2412489652633667,10.19249153137207,-3.3963210582733154,0.8293713927268982,-1.2798539400100708
1781546630904357,310985034,0.02668706700205803,0.011369588784873486,-0.011367456056177616,-0.9995145201683044,-0.184915229678154,0.24578219652175903,10.183764457702637,-3.494494915008545,0.8418063521385193,-1.2792905569076538
1781546630906459,311001701,0.02668229676783085,0.011373481713235378,-0.011367566883563995,-0.9995145797729492,-0.1877780258655548,0.21549859642982483,10.182806968688965,-3.469214677810669,0.8187547922134399,-1.2905471324920654
1781546630934708,311018368,0.026676535606384277,0.01137168426066637,-0.011370905674993992,-0.9995148181915283,-0.19151228666305542,0.23457780480384827,10.203858375549316,-3.447751045227051,0.7789397835731506,-1.2966043949127197
1781546630964883,311035035,0.026665745303034782,0.011366779915988445,-0.011375706642866135,-0.9995151162147522,-0.18585209548473358,0.24310490489006042,10.17878246307373,-3.4380440711975098,0.7569513320922852,-1.3305413722991943
1781546630966243,311051702,0.026651795953512192,0.011367074213922024,-0.011386813595890999,-0.9995153546333313,-0.1833399385213852,0.23664970695972443,10.177401542663574,-3.393298625946045,0.7912211418151855,-1.3521714210510254
1781546630994376,311068369,0.026646804064512253,0.011364607140421867,-0.011381148360669613,-0.9995155334472656,-0.181939497590065,0.2490588128566742,10.175938606262207,-3.509606122970581,0.7760200500488281,-1.2922120094299316
1781546630996607,311085036,0.02664806880056858,0.011354336515069008,-0.011381374672055244,-0.9995155930519104,-0.19088315963745117,0.2282034158706665,10.183389663696289,-3.4712376594543457,0.7218363285064697,-1.2469927072525024
1781546631024699,311101703,0.026649074628949165,0.011359509080648422,-0.011375781148672104,-0.9995155930519104,-0.18604271113872528,0.24510394036769867,10.181059837341309,-3.5082101821899414,0.8289998769760132,-1.2512444257736206
1781546631026247,311118370,0.026644257828593254,0.011354960501194,-0.011383065022528172,-0.9995156526565552,-0.1786373108625412,0.23734097182750702,10.184693336486816,-3.4211649894714355,0.7593332529067993,-1.2887797355651855
1781546631055109,311135037,0.02664567343890667,0.01134546846151352,-0.01138658169656992,-0.9995156526565552,-0.1790538728237152,0.22989675402641296,10.174641609191895,-3.4482250213623047,0.7265875339508057,-1.2461475133895874
1781546631056866,311151704,0.026641732081770897,0.011339930817484856,-0.011390136554837227,-0.9995158910751343,-0.18270869553089142,0.23401737213134766,10.178275108337402,-3.446995496749878,0.753352701663971,-1.2826582193374634
1781546631084153,311168371,0.026635346934199333,0.011337160132825375,-0.01139034889638424,-0.9995160698890686,-0.1841527819633484,0.23699086904525757,10.174129486083984,-3.469470739364624,0.7727800607681274,-1.3008819818496704
1781546631087316,311185038,0.026626208797097206,0.011336377821862698,-0.011398091912269592,-0.9995162487030029,-0.1749693751335144,0.24128508567810059,10.164566993713379,-3.417246103286743,0.7848178744316101,-1.3192076683044434
1781546631114340,311201705,0.02663377858698368,0.011335824616253376,-0.01140807755291462,-0.999515950679779,-0.17378826439380646,0.2381870001554489,10.179527282714844,-3.4029030799865723,0.7873919606208801,-1.204155445098877
1781546631145061,311218372,0.026630794629454613,0.011339285410940647,-0.011404959484934807,-0.9995160102844238,-0.19758132100105286,0.2599695026874542,10.177828788757324,-3.4915237426757812,0.8165009617805481,-1.2788552045822144
1781546631145943,311235039,0.026631958782672882,0.011328712105751038,-0.011408732272684574,-0.9995160102844238,-0.1782759726047516,0.24194830656051636,10.196249008178711,-3.446854829788208,0.7190573215484619,-1.2480429410934448
1781546631174961,311251706,0.026624951511621475,0.011342015117406845,-0.011420096270740032,-0.9995158910751343,-0.17784222960472107,0.232697531580925,10.171833038330078,-3.389418363571167,0.8811217546463013,-1.3048391342163086
1781546631176126,311268373,0.02662677876651287,0.01134536974132061,-0.011430121958255768,-0.9995156526565552,-0.1826370656490326,0.23501327633857727,10.186700820922852,-3.401571750640869,0.8137347102165222,-1.2434837818145752
1781546631204046,311285040,0.02662467211484909,0.01133713684976101,-0.011426209472119808,-0.999515950679779,-0.1663530170917511,0.24187038838863373,10.173742294311523,-3.498745918273926,0.7363330721855164,-1.2707996368408203
1781546631206262,311301707,0.026616640388965607,0.011334298178553581,-0.011425266973674297,-0.9995161890983582,-0.18128138780593872,0.23757225275039673,10.170092582702637,-3.4770395755767822,0.7724214792251587,-1.3119466304779053
1781546631234068,311318374,0.026608405634760857,0.011318868026137352,-0.011425046250224113,-0.9995166063308716,-0.18507292866706848,0.23598963022232056,10.186402320861816,-3.4744269847869873,0.6857607960700989,-1.3127917051315308
1781546631235610,311335041,0.026608172804117203,0.011303873732686043,-0.011426391080021858,-0.9995167255401611,-0.19409005343914032,0.22563715279102325,10.141233444213867,-3.463733673095703,0.6889880299568176,-1.257442831993103
1781546631264793,311351708,0.026608657091856003,0.011285096406936646,-0.011428152211010456,-0.9995169043540955,-0.1839800924062729,0.23048216104507446,10.227753639221191,-3.4619791507720947,0.6630167961120605,-1.2522562742233276
1781546631295182,311368375,0.026613298803567886,0.011284436099231243,-0.011429335922002792,-0.9995167851448059,-0.19901153445243835,0.23972782492637634,10.179259300231934,-3.4629392623901367,0.7879810333251953,-1.2248376607894897
1781546631297441,311385042,0.026617422699928284,0.01128123514354229,-0.011425917968153954,-0.9995167255401611,-0.17869970202445984,0.24764484167099,10.16562271118164,-3.495096445083618,0.7712815999984741,-1.2294480800628662
1781546631324626,311401709,0.026607094332575798,0.011264470405876637,-0.011427225545048714,-0.9995172023773193,-0.18109266459941864,0.23934800922870636,10.173845291137695,-3.463759183883667,0.67598956823349,-1.3264946937561035
1781546631326086,311418376,0.026606755331158638,0.011255358345806599,-0.011428559198975563,-0.9995172619819641,-0.1846788227558136,0.2349855899810791,10.186905860900879,-3.4631314277648926,0.7294433116912842,-1.258697748184204
1781546631354636,311435043,0.026614921167492867,0.011249297298491001,-0.011437997221946716,-0.9995169639587402,-0.18523387610912323,0.23320715129375458,10.177682876586914,-3.407257556915283,0.7496388554573059,-1.199135422706604
1781546631356015,311451710,0.02662009745836258,0.01123786997050047,-0.011433749459683895,-0.9995171427726746,-0.181429922580719,0.2336868792772293,10.196080207824707,-3.5020246505737305,0.7150105237960815,-1.2200865745544434
1781546631385083,311468377,0.026612598448991776,0.011236379854381084,-0.011440467089414597,-0.9995172619819641,-0.18064536154270172,0.22366692125797272,10.174209594726562,-3.42393159866333,0.7802333235740662,-1.3077205419540405
1781546631387006,311485044,0.026610445231199265,0.011233731172978878,-0.01143675111234188,-0.9995173811912537,-0.19582954049110413,0.2511022686958313,10.162398338317871,-3.496607542037964,0.7745600342750549,-1.2722724676132202
1781546631414217,311501711,0.02660563960671425,0.0112267741933465,-0.011438566260039806,-0.999517560005188,-0.1830698549747467,0.23750384151935577,10.199638366699219,-3.459033727645874,0.7437480092048645,-1.2901374101638794
1781546631444292,311518378,0.026611587032675743,0.011235279962420464,-0.01144691277295351,-0.9995171427726746,-0.18138998746871948,0.24056582152843475,10.177815437316895,-3.411752700805664,0.8496949672698975,-1.2157964706420898
1781546631446130,311535045,0.02660432830452919,0.011237511411309242,-0.011437216773629189,-0.9995173811912537,-0.18014812469482422,0.24110032618045807,10.169754981994629,-3.5362308025360107,0.8087659478187561,-1.3083738088607788
1781546631474154,311551712,0.02660684660077095,0.011238562874495983,-0.011433594860136509,-0.9995174407958984,-0.1747104674577713,0.2402302771806717,10.15639877319336,-3.4955954551696777,0.8003648519515991,-1.240077257156372
1781546631477052,311568379,0.02660621516406536,0.011235984042286873,-0.011438140645623207,-0.9995173811912537,-0.1826191395521164,0.23580285906791687,10.172411918640137,-3.439427137374878,0.7736252546310425,-1.2607340812683105
1781546631504059,311585046,0.026610242202878,0.011229489929974079,-0.011443668976426125,-0.9995172619819641,-0.1697656363248825,0.2357354462146759,10.189733505249023,-3.433587074279785,0.7469751834869385,-1.2284233570098877
1781546631505974,311601713,0.02661227248609066,0.011222241446375847,-0.0114463921636343,-0.9995173811912537,-0.1737515926361084,0.22523799538612366,10.180901527404785,-3.45327091217041,0.7421088218688965,-1.2423056364059448
1781546631535120,311618380,0.026606911793351173,0.011216530576348305,-0.011445323936641216,-0.999517560005188,-0.17484723031520844,0.22844518721103668,10.200519561767578,-3.4784867763519287,0.752789318561554,-1.293095588684082
1781546631536754,311635047,0.026605894789099693,0.011216865852475166,-0.01144521962851286,-0.9995176196098328,-0.19753259420394897,0.23611301183700562,10.163789749145508,-3.4708666801452637,0.7945124506950378,-1.2644349336624146
1781546631565388,311651714,0.02660047449171543,0.011209939606487751,-0.011439825408160686,-0.9995178580284119,-0.19556283950805664,0.233814537525177,10.157137870788574,-3.5081849098205566,0.745182454586029,-1.293723225593567
1781546631595550,311668381,0.0265967920422554,0.011208586394786835,-0.011441760696470737,-0.9995179772377014,-0.18259185552597046,0.24263472855091095,10.19808292388916,-3.457061767578125,0.7822438478469849,-1.2827352285385132
1781546631596811,311685048,0.026587940752506256,0.011205902323126793,-0.011438943445682526,-0.9995182752609253,-0.1882571429014206,0.2379625290632248,10.18271255493164,-3.489692449569702,0.7735484838485718,-1.3180937767028809
1781546631624351,311701715,0.026578711345791817,0.01120102871209383,-0.011443162336945534,-0.9995185136795044,-0.19143939018249512,0.23610417544841766,10.166698455810547,-3.4412453174591064,0.7571946382522583,-1.3193997144699097
1781546631625951,311718382,0.02658570371568203,0.011209690943360329,-0.011435179971158504,-0.9995183348655701,-0.19952410459518433,0.22244903445243835,10.168712615966797,-3.5239880084991455,0.8536906242370605,-1.2104179859161377
1781546631654061,311735049,0.026590857654809952,0.011196666397154331,-0.01144521776586771,-0.9995182156562805,-0.18386101722717285,0.23402893543243408,10.197550773620605,-3.4039406776428223,0.7012693881988525,-1.2196128368377686
1781546631656090,311751716,0.026588812470436096,0.011201057583093643,-0.01144982036203146,-0.9995181560516357,-0.17141741514205933,0.23273609578609467,10.177790641784668,-3.437595844268799,0.8213545083999634,-1.2702746391296387
1781546631684656,311768383,0.026589957997202873,0.011198419146239758,-0.011449321173131466,-0.999518096446991,-0.17668543756008148,0.2487756311893463,10.17137336730957,-3.473889112472534,0.7741758823394775,-1.2486064434051514
1781546631686110,311785050,0.026582680642604828,0.011195186525583267,-0.011443798430263996,-0.9995184540748596,-0.170572429895401,0.2337617576122284,10.17387580871582,-3.508197784423828,0.7703341245651245,-1.3083481788635254
1781546631714297,311801717,0.02657449059188366,0.011195548810064793,-0.011446875520050526,-0.9995186924934387,-0.1786770224571228,0.24298959970474243,10.175605773925781,-3.448211908340454,0.7934365272521973,-1.3129581212997437
1781546631744833,311818384,0.026569310575723648,0.011202933266758919,-0.011450537480413914,-0.999518632888794,-0.17626658082008362,0.2244698405265808,10.20539379119873,-3.443281888961792,0.8418574929237366,-1.292544960975647
1781546631746032,311835051,0.026563972234725952,0.011193197220563889,-0.011453881859779358,-0.9995188117027283,-0.19506405293941498,0.2358732968568802,10.163226127624512,-3.448481321334839,0.7242439985275269,-1.2923016548156738
1781546631774635,311851718,0.026570772752165794,0.011190253309905529,-0.011453075334429741,-0.999518632888794,-0.18185396492481232,0.23904888331890106,10.169841766357422,-3.476527214050293,0.7725622653961182,-1.210020899772644
1781546631776021,311868385,0.026575181633234024,0.011185524053871632,-0.01145409606397152,-0.999518632888794,-0.18355076014995575,0.23638136684894562,10.141668319702148,-3.4643867015838623,0.7598199844360352,-1.2257086038589478
1781546631804176,311885052,0.026576388627290726,0.01117568090558052,-0.011443540453910828,-0.9995187520980835,-0.1860470473766327,0.23453857004642487,10.171305656433105,-3.5446829795837402,0.7264466881752014,-1.2485936880111694
1781546631807649,311901719,0.026577642187476158,0.011160193011164665,-0.011438780464231968,-0.9995189905166626,-0.19292324781417847,0.23667775094509125,10.164372444152832,-3.5053415298461914,0.6865932941436768,-1.246954321861267
1781546631834620,311918386,0.02657214179635048,0.011160416528582573,-0.01144659798592329,-0.9995190501213074,-0.1857878565788269,0.23057155311107635,10.18104362487793,-3.415799379348755,0.7917462587356567,-1.2938767671585083
1781546631836217,311935053,0.026562655344605446,0.011152553372085094,-0.011442468501627445,-0.999519407749176,-0.18418926000595093,0.24262553453445435,10.179590225219727,-3.499002695083618,0.7380108833312988,-1.3216155767440796
1781546631864552,311951720,0.026562552899122238,0.01114335935562849,-0.011439859867095947,-0.9995196461677551,-0.1807554066181183,0.25033578276634216,10.158417701721191,-3.4894869327545166,0.7293023467063904,-1.2563668489456177
1781546631894391,311968387,0.026563581079244614,0.01112457737326622,-0.011445109732449055,-0.9995197057723999,-0.19973179697990417,0.22382068634033203,10.1715669631958,-3.437070608139038,0.6620434522628784,-1.2475306987762451
1781546631896647,311985054,0.026573995128273964,0.011119700036942959,-0.011457693763077259,-0.9995193481445312,-0.18000318109989166,0.22384963929653168,10.160219192504883,-3.3852174282073975,0.7570794820785522,-1.184087872505188
1781546631924799,312001721,0.026585092768073082,0.011116267181932926,-0.011460641399025917,-0.9995190501213074,-0.18711036443710327,0.25222042202949524,10.17172622680664,-3.451183319091797,0.7687844038009644,-1.1800540685653687
1781546631925834,312018388,0.02658550627529621,0.01112010795623064,-0.011464201845228672,-0.9995189309120178,-0.19472578167915344,0.2313797026872635,10.189164161682129,-3.4448955059051514,0.8177558779716492,-1.2542282342910767
1781546631954210,312035055,0.026581857353448868,0.011106031946837902,-0.01148303784430027,-0.9995189309120178,-0.17840662598609924,0.24114902317523956,10.173147201538086,-3.3426365852355957,0.6915621161460876,-1.279085397720337
1781546631957407,312051722,0.02658071741461754,0.011090747080743313,-0.011477041058242321,-0.9995192885398865,-0.17692717909812927,0.2463933825492859,10.164766311645508,-3.514024257659912,0.6878867149353027,-1.2644349336624146
1781546631985970,312068389,0.026581183075904846,0.011084840632975101,-0.011483344249427319,-0.9995192885398865,-0.17705415189266205,0.24063920974731445,10.14909839630127,-3.427427053451538,0.7502279281616211,-1.252819538116455
1781546631986746,312085056,0.02658502757549286,0.011086992919445038,-0.011480479501187801,-0.9995191693305969,-0.18581119179725647,0.24564717710018158,10.176477432250977,-3.489410161972046,0.8075876235961914,-1.2302932739257812
1781546632014356,312101723,0.02658235840499401,0.011083772405982018,-0.011486130766570568,-0.9995191693305969,-0.17874126136302948,0.23044009506702423,10.18069839477539,-3.4317433834075928,0.7686051726341248,-1.274219036102295
1781546632044072,312118390,0.026584623381495476,0.01109770406037569,-0.011493615806102753,-0.999518871307373,-0.19858340919017792,0.22053520381450653,10.159622192382812,-3.4159016609191895,0.8865002989768982,-1.2419854402542114
1781546632046367,312135057,0.026583902537822723,0.011090150102972984,-0.011492704972624779,-0.9995189309120178,-0.18107299506664276,0.22857913374900818,10.164304733276367,-3.4771676063537598,0.7400853633880615,-1.2609132528305054
1781546632074140,312151724,0.026584990322589874,0.01108679547905922,-0.011500743217766285,-0.9995189905166626,-0.1968361884355545,0.23941226303577423,10.17198657989502,-3.415095090866089,0.7674269080162048,-1.249131441116333
1781546632076453,312168391,0.026587849482893944,0.011089753359556198,-0.011501993052661419,-0.999518871307373,-0.18690769374370575,0.23562398552894592,10.175312995910645,-3.460749626159668,0.8121723532676697,-1.237247109413147
1781546632104681,312185058,0.026588695123791695,0.011080480180680752,-0.011503182351589203,-0.9995189309120178,-0.19938421249389648,0.2402254045009613,10.150398254394531,-3.46347713470459,0.7279706001281738,-1.2502455711364746
1781546632106450,312201725,0.026595819741487503,0.011077607050538063,-0.011510945856571198,-0.9995186924934387,-0.18790994584560394,0.22720776498317719,10.156396865844727,-3.4172720909118652,0.7712048292160034,-1.2069473266601562
1781546632134668,312218392,0.026596292853355408,0.011071532033383846,-0.011515353806316853,-0.9995186924934387,-0.19355694949626923,0.22344791889190674,10.177146911621094,-3.4405412673950195,0.7492419481277466,-1.2526021003723145
1781546632135978,312235059,0.026591718196868896,0.011066255159676075,-0.011514493264257908,-0.999518871307373,-0.20564918220043182,0.2284354865550995,10.182685852050781,-3.476027727127075,0.7552737593650818,-1.287985920906067
1781546632164772,312251726,0.026587365195155144,0.011054977774620056,-0.011525038629770279,-0.9995189905166626,-0.1723172962665558,0.22225326299667358,10.160552024841309,-3.398754358291626,0.7119243144989014,-1.2857190370559692
1781546632194514,312268393,0.026594294235110283,0.01106314267963171,-0.0115195969119668,-0.9995187520980835,-0.18823689222335815,0.22473399341106415,10.173510551452637,-3.505841016769409,0.8493363857269287,-1.210174560546875
1781546632196118,312285060,0.026591189205646515,0.011068855412304401,-0.011519413441419601,-0.9995187520980835,-0.1873297244310379,0.2285459190607071,10.153299331665039,-3.46966290473938,0.8306647539138794,-1.279085636138916
1781546632224083,312301727,0.02658536471426487,0.011077282018959522,-0.011529514566063881,-0.9995186924934387,-0.1930122673511505,0.24260194599628448,10.17253589630127,-3.397972583770752,0.8472616672515869,-1.2972832918167114
1781546632226745,312318394,0.026583610102534294,0.011072260327637196,-0.011523045599460602,-0.999518871307373,-0.18218328058719635,0.23364000022411346,10.150992393493652,-3.514780282974243,0.7581424117088318,-1.2685332298278809
1781546632254598,312335061,0.026584021747112274,0.011063733138144016,-0.011525540612637997,-0.9995189309120178,-0.18587419390678406,0.22853557765483856,10.18090534210205,-3.4540772438049316,0.7325935959815979,-1.2540104389190674
1781546632258292,312351728,0.026579219847917557,0.011056615971028805,-0.011539235711097717,-0.9995189309120178,-0.1877668797969818,0.23218944668769836,10.169198036193848,-3.3763558864593506,0.739803671836853,-1.2886775732040405
1781546632284642,312368395,0.026584193110466003,0.011056510731577873,-0.011558713391423225,-0.9995186924934387,-0.18159273266792297,0.24482467770576477,10.176276206970215,-3.335951328277588,0.7876864671707153,-1.2212646007537842
1781546632314887,312385062,0.026575904339551926,0.011065422557294369,-0.011528536677360535,-0.9995191693305969,-0.20643895864486694,0.21942885220050812,10.16821575164795,-3.674065589904785,0.8576093912124634,-1.3176326751708984
1781546632317032,312401729,0.026566507294774055,0.011060432530939579,-0.011543921194970608,-0.9995192885398865,-0.18975907564163208,0.2416735589504242,10.162577629089355,-3.363959312438965,0.7536600828170776,-1.3204115629196167
1781546632345173,312418396,0.026575203984975815,0.011058528907597065,-0.011532743461430073,-0.9995191693305969,-0.1801217943429947,0.2143091857433319,10.178053855895996,-3.5472443103790283,0.7811938524246216,-1.1974835395812988
1781546632347005,312435063,0.02657684125006199,0.011063470505177975,-0.01154241617769003,-0.9995189309120178,-0.17869782447814941,0.22102750837802887,10.173832893371582,-3.401853084564209,0.8238261342048645,-1.2450205087661743
1781546632375153,312451730,0.02658367156982422,0.011053416877985,-0.011555632576346397,-0.9995187520980835,-0.1938256323337555,0.22920849919319153,10.185352325439453,-3.3806328773498535,0.7205427885055542,-1.208279013633728
1781546632377704,312468397,0.02657916583120823,0.01106204092502594,-0.011561999097466469,-0.9995186924934387,-0.19430242478847504,0.23129069805145264,10.16417121887207,-3.4237518310546875,0.8491826057434082,-1.2874094247817993
1781546632404560,312485064,0.02657749131321907,0.011075838468968868,-0.011569138616323471,-0.9995185136795044,-0.18603026866912842,0.22103087604045868,10.19466781616211,-3.4173362255096436,0.8848356008529663,-1.2691861391067505
1781546632405825,312501731,0.026576247066259384,0.011057661846280098,-0.011581632308661938,-0.9995185732841492,-0.18806277215480804,0.24121180176734924,10.187599182128906,-3.3866522312164307,0.6641436815261841,-1.2621170282363892
1781546632434335,312518398,0.02656904049217701,0.011054418981075287,-0.011589263565838337,-0.9995186924934387,-0.1753624975681305,0.2417161911725998,10.164517402648926,-3.4167215824127197,0.7670940160751343,-1.3060940504074097
1781546632464622,312535065,0.026572335511446,0.011056622490286827,-0.011594506911933422,-0.9995185136795044,-0.19323629140853882,0.24891281127929688,10.19011402130127,-3.4331772327423096,0.8058843016624451,-1.2345832586288452
1781546632466033,312551732,0.02656526304781437,0.011055411770939827,-0.011577335186302662,-0.999518871307373,-0.18192121386528015,0.24256590008735657,10.170689582824707,-3.5869946479797363,0.7856248021125793,-1.3069648742675781
1781546632495293,312568399,0.026571951806545258,0.011057155206799507,-0.011592639610171318,-0.9995184540748596,-0.188716322183609,0.2514784038066864,10.173051834106445,-3.3640997409820557,0.8010563254356384,-1.211442232131958
1781546632497018,312585066,0.02657414600253105,0.011052535846829414,-0.011590826325118542,-0.9995185136795044,-0.16149280965328217,0.22619777917861938,10.177183151245117,-3.482546091079712,0.7600504755973816,-1.2418830394744873
1781546632525744,312601733,0.026571137830615044,0.011055191047489643,-0.01157428976148367,-0.9995188117027283,-0.18053187429904938,0.21846462786197662,10.210278511047363,-3.582026243209839,0.8123388886451721,-1.2781380414962769
1781546632527074,312618400,0.02656431868672371,0.011054722592234612,-0.011580190621316433,-0.9995189309120178,-0.17879828810691833,0.22804981470108032,10.159571647644043,-3.428349256515503,0.7864956259727478,-1.304595708847046
1781546632556994,312635067,0.026564016938209534,0.011044668033719063,-0.011596440337598324,-0.999518871307373,-0.17731218039989471,0.2300938367843628,10.199380874633789,-3.3590033054351807,0.7192622423171997,-1.2571995258331299
1781546632557454,312651734,0.026565156877040863,0.011052504181861877,-0.011592363007366657,-0.9995188117027283,-0.18323148787021637,0.23548728227615356,10.153800964355469,-3.4956860542297363,0.8460068106651306,-1.2502456903457642
1781546632614710,312668401,0.0265683401376009,0.011040874756872654,-0.011583173647522926,-0.9995189905166626,-0.19779112935066223,0.25321516394615173,10.199505805969238,-3.53438663482666,0.7132945656776428,-1.234980583190918
1781546632618310,312685068,0.02656283974647522,0.011034552939236164,-0.011586357839405537,-0.9995191097259521,-0.18345391750335693,0.24255996942520142,10.18184757232666,-3.4476358890533447,0.7468215227127075,-1.2947605848312378
1781546632619283,312701735,0.0265633724629879,0.011026867665350437,-0.011585949920117855,-0.9995191693305969,-0.18621091544628143,0.21895867586135864,10.1880521774292,-3.4729154109954834,0.738574206829071,-1.252524971961975
1781546632644383,312718402,0.02656261995434761,0.011028295382857323,-0.011590036563575268,-0.9995190501213074,-0.1650964468717575,0.2170424610376358,10.184361457824707,-3.440361976623535,0.8002880215644836,-1.2620275020599365
1781546632646524,312735069,0.026560088619589806,0.011033748276531696,-0.011615370400249958,-0.999518871307373,-0.18538489937782288,0.22908063232898712,10.140168190002441,-3.2931015491485596,0.823966920375824,-1.2734506130218506
1781546632675255,312751736,0.026553981006145477,0.011042313650250435,-0.01162560936063528,-0.9995188117027283,-0.1868157833814621,0.24599987268447876,10.167369842529297,-3.396423101425171,0.8477482795715332,-1.2990248203277588
1781546632676499,312768403,0.02654450759291649,0.011031076312065125,-0.0116288335993886,-0.9995191693305969,-0.20098790526390076,0.23380304872989655,10.172510147094727,-3.44832706451416,0.7126924991607666,-1.3211926221847534
1781546632704840,312785070,0.02653343603014946,0.011018948629498482,-0.011620545759797096,-0.9995197057723999,-0.20575781166553497,0.23503336310386658,10.184699058532715,-3.52754807472229,0.7084794640541077,-1.3338199853897095
1781546632705900,312801737,0.02652960643172264,0.011019880883395672,-0.011631484143435955,-0.9995197057723999,-0.1842425912618637,0.22531379759311676,10.162384986877441,-3.3935420513153076,0.7953320145606995,-1.2818132638931274
1781546632734460,312818404,0.0265293400734663,0.01101940218359232,-0.011626380495727062,-0.9995197653770447,-0.16921164095401764,0.22224366664886475,10.183329582214355,-3.5042145252227783,0.7887623310089111,-1.258134365081787
1781546632766197,312835071,0.026541268453001976,0.011012284085154533,-0.011626957915723324,-0.9995195269584656,-0.17393219470977783,0.21703478693962097,10.169954299926758,-3.46724271774292,0.7431333661079407,-1.1737020015716553
1781546632768946,312851738,0.026540229097008705,0.011009377427399158,-0.011630355380475521,-0.9995195269584656,-0.20499108731746674,0.2333804965019226,10.18306827545166,-3.44592022895813,0.770474910736084,-1.2643325328826904
1781546632795065,312868405,0.0265316404402256,0.011010056361556053,-0.01163698174059391,-0.9995197057723999,-0.20096978545188904,0.2299596667289734,10.173592567443848,-3.422612428665161,0.7938593029975891,-1.314738392829895
1781546632797004,312885072,0.02653416432440281,0.011004318483173847,-0.011640142649412155,-0.9995197057723999,-0.19353768229484558,0.23610413074493408,10.17062759399414,-3.4483275413513184,0.7512909770011902,-1.2385021448135376
1781546632824803,312901739,0.026529043912887573,0.01100611500442028,-0.0116470567882061,-0.9995195865631104,-0.1711907982826233,0.25003430247306824,10.158116340637207,-3.4207427501678467,0.8016711473464966,-1.2911235094070435
1781546632826349,312918406,0.026526283472776413,0.011001690290868282,-0.011647606268525124,-0.9995196461677551,-0.17723947763442993,0.2337907999753952,10.167732238769531,-3.4654877185821533,0.7603321671485901,-1.2766906023025513
1781546632855086,312935073,0.02652767486870289,0.011000246740877628,-0.011648186482489109,-0.9995197057723999,-0.19813573360443115,0.23276525735855103,10.165458679199219,-3.465193271636963,0.7811297178268433,-1.247658610343933
1781546632856495,312951740,0.0265334565192461,0.010995600372552872,-0.011642460711300373,-0.9995195865631104,-0.19913475215435028,0.2196245789527893,10.171160697937012,-3.5093371868133545,0.7606267333030701,-1.2169619798660278
1781546632884255,312968407,0.02654518187046051,0.010984019376337528,-0.011645320802927017,-0.9995195269584656,-0.17760607600212097,0.24493730068206787,10.159146308898926,-3.4519901275634766,0.7118217945098877,-1.1753283739089966
1781546632916138,312985074,0.02655600942671299,0.010973033495247364,-0.011654219590127468,-0.9995192289352417,-0.17226186394691467,0.24893563985824585,10.18803596496582,-3.4099981784820557,0.7146903872489929,-1.1817699670791626
1781546632917448,313001741,0.026562651619315147,0.010964486747980118,-0.011654082685709,-0.9995191097259521,-0.17937549948692322,0.21986141800880432,10.176996231079102,-3.4715583324432373,0.7327985763549805,-1.2108403444290161
1781546632945935,313018408,0.02656525932252407,0.010964300483465195,-0.011648368090391159,-0.9995191097259521,-0.20329926908016205,0.23255904018878937,10.19030475616455,-3.5078511238098145,0.7908753752708435,-1.2401797771453857
1781546632947483,313035075,0.02655978314578533,0.010967107489705086,-0.011649935506284237,-0.9995191693305969,-0.18933558464050293,0.22844398021697998,10.163225173950195,-3.4570231437683105,0.8095342516899109,-1.2949268817901611
1781546632974992,313051742,0.02656961791217327,0.010966687463223934,-0.01164498645812273,-0.9995189905166626,-0.1808035969734192,0.249289408326149,10.193028450012207,-3.503368854522705,0.7897483706474304,-1.1889671087265015
1781546632976404,313068409,0.026568835601210594,0.010978573001921177,-0.01164568867534399,-0.9995188117027283,-0.19156062602996826,0.23459123075008392,10.162595748901367,-3.461595058441162,0.8723877668380737,-1.2632184028625488
1781546633004530,313085076,0.02657904103398323,0.010980390943586826,-0.01163733284920454,-0.9995187520980835,-0.18700091540813446,0.22422374784946442,10.191737174987793,-3.52651047706604,0.8057180047035217,-1.1879043579101562
1781546633005968,313101743,0.026577796787023544,0.010985058732330799,-0.011632528156042099,-0.9995188117027283,-0.1878713071346283,0.23159319162368774,10.16334056854248,-3.500629186630249,0.8236982226371765,-1.2666635513305664
1781546633034411,313118410,0.026581812649965286,0.010991125367581844,-0.011636164970695972,-0.9995185732841492,-0.18184849619865417,0.23819345235824585,10.181757926940918,-3.4423341751098633,0.8322015404701233,-1.2295249700546265
1781546633035638,313135077,0.02658195234835148,0.010991597548127174,-0.011637339368462563,-0.9995185732841492,-0.18499459326267242,0.2392326295375824,10.19431209564209,-3.460416793823242,0.7938336133956909,-1.256469488143921
1781546633064512,313151744,0.026568397879600525,0.010992870666086674,-0.011646849103271961,-0.999518632888794,-0.19948174059391022,0.24308215081691742,10.162811279296875,-3.4018657207489014,0.796689510345459,-1.3495203256607056
1781546633094078,313168411,0.026569940149784088,0.01098814606666565,-0.011640509590506554,-0.9995187520980835,-0.18875256180763245,0.2201869934797287,10.178291320800781,-3.512807607650757,0.7595510482788086,-1.2463010549545288
1781546633126006,313185078,0.026566281914711,0.010986533015966415,-0.011636491864919662,-0.9995190501213074,-0.17836467921733856,0.21991419792175293,10.168303489685059,-3.495800256729126,0.7801052331924438,-1.2817233800888062
1781546633127953,313201745,0.026562625542283058,0.010982434265315533,-0.011646890081465244,-0.9995190501213074,-0.18133307993412018,0.2435353547334671,10.176239013671875,-3.397268772125244,0.760370671749115,-1.2804685831069946
1781546633129413,313218412,0.026556098833680153,0.010969363152980804,-0.01165702473372221,-0.9995192289352417,-0.18643830716609955,0.23895451426506042,10.159401893615723,-3.4006240367889404,0.6984776258468628,-1.3012789487838745
1781546633154547,313235079,0.026551587507128716,0.010961940512061119,-0.011654752306640148,-0.9995194673538208,-0.1795123666524887,0.25089308619499207,10.167548179626465,-3.4853124618530273,0.7397011518478394,-1.2877041101455688
1781546633156413,313251746,0.026561839506030083,0.01096568163484335,-0.011655576527118683,-0.9995191693305969,-0.18661455810070038,0.23593656718730927,10.175806999206543,-3.4626450538635254,0.8170899748802185,-1.1875073909759521
1781546633185294,313268413,0.026561008766293526,0.010962825268507004,-0.011658993549644947,-0.9995191097259521,-0.17586486041545868,0.2443045973777771,10.176939964294434,-3.4454331398010254,0.770449161529541,-1.2621042728424072
1781546633187285,313285080,0.026558002457022667,0.010962757281959057,-0.011650161817669868,-0.9995192885398865,-0.1764473170042038,0.2122015357017517,10.167363166809082,-3.5286495685577393,0.7915925979614258,-1.2782148122787476
1781546633214531,313301747,0.02656925655901432,0.010956669226288795,-0.011649636551737785,-0.9995190501213074,-0.186700701713562,0.22637423872947693,10.15828800201416,-3.4735941886901855,0.7498437166213989,-1.1800665855407715
1781546633244130,313318414,0.0265657901763916,0.010950804688036442,-0.011638638563454151,-0.9995193481445312,-0.17709451913833618,0.2259015291929245,10.17912483215332,-3.5450668334960938,0.7520849704742432,-1.2815059423446655
1781546633245958,313335081,0.026567751541733742,0.010955826379358768,-0.011634085327386856,-0.9995192885398865,-0.18294993042945862,0.23635616898536682,10.170352935791016,-3.498669385910034,0.8261825442314148,-1.244431495666504
1781546633274881,313351748,0.026573777198791504,0.010965616442263126,-0.011632823385298252,-0.9995189905166626,-0.18627077341079712,0.24134276807308197,10.174351692199707,-3.4751570224761963,0.8586722612380981,-1.2163856029510498
1781546633276205,313368415,0.02657119184732437,0.010962361469864845,-0.011636693961918354,-0.9995191097259521,-0.1923108547925949,0.24444985389709473,10.178611755371094,-3.4421677589416504,0.767311692237854,-1.274628758430481
1781546633303950,313385082,0.026566747575998306,0.010954653844237328,-0.01163461897522211,-0.9995193481445312,-0.18241091072559357,0.24579209089279175,10.17669677734375,-3.4837114810943604,0.7376266121864319,-1.2869869470596313
1781546633306189,313401749,0.026562705636024475,0.010955927893519402,-0.011635023169219494,-0.999519407749176,-0.18659403920173645,0.24769049882888794,10.164911270141602,-3.4648351669311523,0.7989434003829956,-1.2845282554626465
1781546633335634,313418416,0.02656714618206024,0.010954039171338081,-0.011628678068518639,-0.9995193481445312,-0.17887522280216217,0.2235575169324875,10.166157722473145,-3.512640953063965,0.7791063189506531,-1.2266690731048584
1781546633337086,313435083,0.026562785729765892,0.010952006094157696,-0.011634093709290028,-0.9995195269584656,-0.18907272815704346,0.2387816309928894,10.192795753479004,-3.4308853149414062,0.7752388119697571,-1.2856806516647339
1781546633364677,313451750,0.02655601315200329,0.010945256799459457,-0.011643409729003906,-0.9995196461677551,-0.1793234795331955,0.22966687381267548,10.156638145446777,-3.4049651622772217,0.7419167160987854,-1.302597999572754
1781546633394758,313468417,0.02654838189482689,0.010950709693133831,-0.011643911711871624,-0.9995198249816895,-0.18845131993293762,0.23203632235527039,10.192781448364258,-3.4633495807647705,0.8273094296455383,-1.3106660842895508
1781546633396796,313485084,0.026555001735687256,0.010946245864033699,-0.011649299412965775,-0.9995195865631104,-0.17606621980667114,0.241256445646286,10.176414489746094,-3.4323196411132812,0.7593973875045776,-1.210878849029541
1781546633424592,313501751,0.026562441140413284,0.010944481007754803,-0.01165623776614666,-0.9995193481445312,-0.1984875351190567,0.2333153933286667,10.174003601074219,-3.4213318824768066,0.7776848673820496,-1.2053464651107788
1781546633426599,313518418,0.026570111513137817,0.010939889587461948,-0.011658924631774426,-0.9995191693305969,-0.1796015501022339,0.23137569427490234,10.174788475036621,-3.4510810375213623,0.7591028809547424,-1.2044756412506104
1781546633454169,313535085,0.026568133383989334,0.010930335149168968,-0.01165645383298397,-0.9995193481445312,-0.1793437898159027,0.2429695427417755,10.172995567321777,-3.4870541095733643,0.7251275777816772,-1.2705308198928833
1781546633456438,313551752,0.026576362550258636,0.01093004085123539,-0.011649210937321186,-0.9995191693305969,-0.18555663526058197,0.23187611997127533,10.180893898010254,-3.5182759761810303,0.7904399037361145,-1.2012227773666382
1781546633485054,313568419,0.02657226286828518,0.010937274433672428,-0.011647576466202736,-0.9995191693305969,-0.18838758766651154,0.2302396148443222,10.151912689208984,-3.477858781814575,0.8401541709899902,-1.285744547843933
1781546633486590,313585086,0.026565920561552048,0.01092643290758133,-0.011654495261609554,-0.9995195269584656,-0.20267678797245026,0.25817787647247314,10.152560234069824,-3.4221253395080566,0.7141396403312683,-1.2999470233917236
1781546633515040,313601753,0.026555845513939857,0.010935366153717041,-0.011663129553198814,-0.9995194673538208,-0.19083859026432037,0.2388729304075241,10.167612075805664,-3.406322717666626,0.8494132161140442,-1.327378273010254
1781546633544073,313618420,0.026560872793197632,0.010920851491391659,-0.011673565953969955,-0.9995193481445312,-0.19216135144233704,0.23451974987983704,10.171869277954102,-3.399343252182007,0.6891161203384399,-1.22065007686615
1781546633546244,313635087,0.026557819917798042,0.010918625630438328,-0.01168082095682621,-0.9995194673538208,-0.18403436243534088,0.24153676629066467,10.168403625488281,-3.4183735847473145,0.7734971642494202,-1.2764346599578857
1781546633575179,313651754,0.026552116498351097,0.010920003056526184,-0.01168455183506012,-0.9995195269584656,-0.1865725815296173,0.24269643425941467,10.169987678527832,-3.4413225650787354,0.7986104488372803,-1.2962075471878052
1781546633575955,313668421,0.026560312137007713,0.010928603820502758,-0.011676093563437462,-0.9995192885398865,-0.1816982924938202,0.24198484420776367,10.170999526977539,-3.525306463241577,0.8516415357589722,-1.2022475004196167
1781546633604018,313685088,0.02656557224690914,0.010926889255642891,-0.011682833544909954,-0.9995191097259521,-0.18528909981250763,0.2274719923734665,10.191171646118164,-3.422522783279419,0.7777361273765564,-1.219215750694275
1781546633606182,313701755,0.026570284739136696,0.010926180519163609,-0.011687057092785835,-0.9995189309120178,-0.18691061437129974,0.23155394196510315,10.177525520324707,-3.4396960735321045,0.7850356698036194,-1.2242742776870728
1781546633634714,313718422,0.026579100638628006,0.01092586014419794,-0.011688236147165298,-0.9995186924934387,-0.18079592287540436,0.21994855999946594,10.159683227539062,-3.4606473445892334,0.7885958552360535,-1.1962283849716187
1781546633635814,313735089,0.026574254035949707,0.010923425666987896,-0.011689607053995132,-0.9995188117027283,-0.17554163932800293,0.22876040637493134,10.144877433776855,-3.4580090045928955,0.7728312015533447,-1.2898941040039062
1781546633664327,313751756,0.026567382737994194,0.010915937833487988,-0.011692418716847897,-0.9995190501213074,-0.17429158091545105,0.2408449649810791,10.154244422912598,-3.4492876529693604,0.7376777529716492,-1.3025850057601929
1781546633694182,313768423,0.02656705118715763,0.010913565754890442,-0.011686216108500957,-0.9995191097259521,-0.1875857263803482,0.2347850352525711,10.163529396057129,-3.5108869075775146,0.7750212550163269,-1.2592229843139648
1781546633696437,313785090,0.026567423716187477,0.010914504528045654,-0.0116822998970747,-0.9995192289352417,-0.17395803332328796,0.2230042815208435,10.16135025024414,-3.494622230529785,0.7974193096160889,-1.2550221681594849
1781546633724131,313801757,0.02656393311917782,0.010911399498581886,-0.011688590049743652,-0.9995192885398865,-0.17549388110637665,0.22477908432483673,10.17934799194336,-3.425020217895508,0.7674269676208496,-1.2812626361846924
1781546633726428,313818424,0.026560109108686447,0.01090971939265728,-0.011684098280966282,-0.9995194673538208,-0.17433811724185944,0.2172529548406601,10.170462608337402,-3.4988489151000977,0.7791832685470581,-1.282658576965332
1781546633754566,313835091,0.026561690494418144,0.010900997556746006,-0.011685018427670002,-0.9995194673538208,-0.1952544003725052,0.23655548691749573,10.160984992980957,-3.462721586227417,0.7302500605583191,-1.2461473941802979
1781546633756463,313851758,0.026559408754110336,0.010900665074586868,-0.011685453355312347,-0.9995195269584656,-0.18631316721439362,0.2344483882188797,10.186771392822266,-3.4646425247192383,0.7876608371734619,-1.2725924253463745
1781546633784140,313868425,0.02655554562807083,0.010906743817031384,-0.011683025397360325,-0.9995196461677551,-0.17171132564544678,0.23906412720680237,10.160917282104492,-3.483442544937134,0.8320606350898743,-1.2847075462341309
1781546633786253,313885092,0.026550469920039177,0.010903787799179554,-0.011685810983181,-0.9995197653770447,-0.1768127828836441,0.23519329726696014,10.184504508972168,-3.448967456817627,0.768925130367279,-1.2921477556228638
1781546633814750,313901759,0.026545455679297447,0.010905600152909756,-0.011685347184538841,-0.9995198249816895,-0.16866807639598846,0.22572627663612366,10.182076454162598,-3.4701240062713623,0.8022858500480652,-1.2913155555725098
1781546633844064,313918426,0.026551641523838043,0.01090715266764164,-0.011697360314428806,-0.9995194673538208,-0.1792888194322586,0.23391060531139374,10.184514045715332,-3.385230779647827,0.7991739511489868,-1.2141189575195312
1781546633846134,313935093,0.026548266410827637,0.010906446725130081,-0.011708500795066357,-0.9995195269584656,-0.18278881907463074,0.23624564707279205,10.195699691772461,-3.3909552097320557,0.7829994559288025,-1.278957486152649
1781546633874225,313951760,0.02654656581580639,0.010918304324150085,-0.011706409975886345,-0.999519407749176,-0.17364385724067688,0.22010158002376556,10.17757511138916,-3.4799084663391113,0.8719140887260437,-1.2695447206497192
1781546633876367,313968427,0.026548845693469048,0.010916994884610176,-0.011712893843650818,-0.9995192885398865,-0.1909445971250534,0.2368655502796173,10.198112487792969,-3.4232656955718994,0.7801436185836792,-1.2404870986938477
1781546633904419,313985094,0.02654746174812317,0.010916421189904213,-0.01170546654611826,-0.9995194673538208,-0.19010160863399506,0.23726290464401245,10.178921699523926,-3.519505739212036,0.7874817848205566,-1.2667146921157837
1781546633906019,314001761,0.026556216180324554,0.010914190672338009,-0.011711019091308117,-0.9995191693305969,-0.18885572254657745,0.23304873704910278,10.203336715698242,-3.4303219318389893,0.7744832634925842,-1.1968815326690674
1781546633934855,314018428,0.026552420109510422,0.010912485420703888,-0.011716109700500965,-0.9995192289352417,-0.19690722227096558,0.23330284655094147,10.175472259521484,-3.4324862957000732,0.7771341800689697,-1.2826457023620605
1781546633935876,314035095,0.02654188685119152,0.010919478721916676,-0.011712344363331795,-0.9995194673538208,-0.18467171490192413,0.22921915352344513,10.192909240722656,-3.4910500049591064,0.8379388451576233,-1.3300421237945557
1781546633965989,314051762,0.026538748294115067,0.010915105231106281,-0.011713789775967598,-0.9995195269584656,-0.17551985383033752,0.2304491102695465,10.18686294555664,-3.4581756591796875,0.759423017501831,-1.2783043384552002
1781546633995452,314068429,0.026545383036136627,0.010918324813246727,-0.011714952066540718,-0.999519407749176,-0.1756666749715805,0.2428796887397766,10.168344497680664,-3.4596478939056396,0.8125180602073669,-1.2108019590377808
1781546633996912,314085096,0.026540201157331467,0.010922920890152454,-0.011725261807441711,-0.9995193481445312,-0.18543832004070282,0.23576995730400085,10.178298950195312,-3.3956551551818848,0.8194335103034973,-1.291238784790039
1781546634024872,314101763,0.026543300598859787,0.010912405326962471,-0.011725258082151413,-0.999519407749176,-0.18997164070606232,0.22716569900512695,10.175993919372559,-3.469406843185425,0.7179943919181824,-1.2342121601104736
1781546634026427,314118430,0.026585549116134644,0.010833274573087692,-0.011660045944154263,-0.9995198845863342,-0.1828155219554901,0.23522360622882843,10.17660903930664,-3.442949056625366,0.7433382272720337,-1.3013429641723633
1781546634054833,314135097,0.02658386528491974,0.010828958824276924,-0.011651991866528988,-0.9995200634002686,-0.18511761724948883,0.24447199702262878,10.172807693481445,-3.5228993892669678,0.7623172998428345,-1.2691093683242798
1781546634057102,314151764,0.026587991043925285,0.01083205733448267,-0.011659068055450916,-0.9995198249816895,-0.17668139934539795,0.22704221308231354,10.193131446838379,-3.418168544769287,0.8109813332557678,-1.2287821769714355
1781546634084320,314168431,0.026583855971693993,0.010833037085831165,-0.011657596565783024,-0.9995198845863342,-0.17759303748607635,0.2480689436197281,10.160140991210938,-3.477116346359253,0.7972785234451294,-1.2866923809051514
1781546634114200,314185098,0.02659512870013714,0.010823581367731094,-0.011662119999527931,-0.9995195865631104,-0.1899329274892807,0.23513086140155792,10.188755989074707,-3.438133716583252,0.7257166504859924,-1.178939700126648
1781546634116512,314201765,0.026590093970298767,0.0108276242390275,-0.011666151694953442,-0.9995197057723999,-0.18896712362766266,0.2550847828388214,10.174735069274902,-3.438171625137329,0.8172179460525513,-1.2911872863769531
1781546634145672,314218432,0.02660250850021839,0.010826620273292065,-0.01167004182934761,-0.9995193481445312,-0.2004173845052719,0.2293509691953659,10.178043365478516,-3.441117286682129,0.7839598655700684,-1.1727159023284912
1781546634147511,314235099,0.026597395539283752,0.010821138508617878,-0.011667082086205482,-0.9995195865631104,-0.18922731280326843,0.23713314533233643,10.195430755615234,-3.487643241882324,0.7529429197311401,-1.2921991348266602
1781546634177106,314251766,0.02659296989440918,0.010829221457242966,-0.011676574125885963,-0.9995194673538208,-0.17598053812980652,0.238218754529953,10.167553901672363,-3.4001245498657227,0.843970537185669,-1.288408637046814
