host_t_us,sensor_t_us,qw,qx,qy,qz,ax,ay,az,gx,gy,gz
1781546625407031,305510546,0.1715727597475052,-0.005531648639589548,0.003565496066585183,-0.9851495623588562,0.09804874658584595,-0.09567070752382278,9.766243934631348,0.676642656326294,0.029217684641480446,0.13995419442653656
1781546625408658,305527213,0.17156954109668732,-0.005533641669899225,0.0035680592991411686,-0.9851500988006592,0.09575659781694412,-0.10160718858242035,9.745936393737793,0.6776671409606934,0.02076549455523491,0.08005888760089874
1781546625437382,305543880,0.1715576946735382,-0.005538142751902342,0.0035699005238711834,-0.9851521849632263,0.11722448468208313,-0.08365107327699661,9.72794246673584,0.6792551875114441,0.003195184050127864,0.012146823108196259
1781546625440839,305560547,0.17155122756958008,-0.005542270373553038,0.003571738488972187,-0.9851531982421875,0.0837547779083252,-0.08923352509737015,9.781413078308105,0.6798186898231506,0.005628390237689018,0.04685203358530998
1781546625466673,305577214,0.17156857252120972,-0.005543836858123541,0.0035701971501111984,-0.9851502180099487,0.1076509952545166,-0.09325318038463593,9.720149040222168,0.7066607475280762,0.018204225227236748,0.2193407416343689
1781546625496381,305593881,0.17156454920768738,-0.005536979530006647,0.0035695701371878386,-0.985150933265686,0.1024547591805458,-0.08816781640052795,9.748544692993164,0.7097598910331726,0.07699817419052124,0.07202930748462677
1781546625498415,305610548,0.1715661585330963,-0.005533148068934679,0.003568880958482623,-0.9851506948471069,0.10159299522638321,-0.08994516730308533,9.738265037536621,0.7064943313598633,0.0563543364405632,0.10287981480360031
1781546625526912,305627215,0.171566903591156,-0.005530822090804577,0.003559490665793419,-0.9851506352424622,0.0920766070485115,-0.0991610735654831,9.748790740966797,0.7637258172035217,0.03588978946208954,0.10097165405750275
1781546625527850,305643882,0.17156480252742767,-0.005539936013519764,0.003555977251380682,-0.985150933265686,0.0939970314502716,-0.08132652938365936,9.728388786315918,0.7104770541191101,-0.0346795916557312,0.08469479531049728
1781546625556691,305660549,0.17155909538269043,-0.005544315092265606,0.003559526987373829,-0.9851519465446472,0.10794419050216675,-0.08460234105587006,9.747285842895508,0.6680752038955688,0.005871710833162069,0.05705868825316429
1781546625559131,305677216,0.17156410217285156,-0.0055434866808354855,0.003561862278729677,-0.985150933265686,0.09470869600772858,-0.07829032838344574,9.747918128967285,0.682725727558136,0.039437152445316315,0.13246247172355652
1781546625586816,305693883,0.17156276106834412,-0.00554704712703824,0.003566152649000287,-0.9851511716842651,0.07563678175210953,-0.09868544340133667,9.739350318908691,0.6640157103538513,0.012223660945892334,0.08783235400915146
1781546625618764,305710550,0.17157040536403656,-0.0055538322776556015,0.0035635470412671566,-0.9851498007774353,0.0914255902171135,-0.10634567588567734,9.743727684020996,0.7072241902351379,-0.018082566559314728,0.15443816781044006
1781546625619232,305727217,0.17156413197517395,-0.005562921054661274,0.003572600893676281,-0.9851507544517517,0.08704131096601486,-0.07236097753047943,9.73934268951416,0.6250074505805969,-0.01944003812968731,0.053869910538196564
1781546625647452,305743884,0.17155054211616516,-0.00557140726596117,0.0035688644275069237,-0.9851531982421875,0.10040201246738434,-0.0814552754163742,9.75843334197998,0.7124363780021667,-0.03036385402083397,0.009483101777732372
1781546625648561,305760551,0.17154823243618011,-0.005565008148550987,0.003553091548383236,-0.9851536750793457,0.10339530557394028,-0.08813562989234924,9.72462272644043,0.8117495775222778,0.05599575862288475,0.08105777949094772
1781546625677418,305777218,0.17155160009860992,-0.005569385830312967,0.003553019603714347,-0.985153079032898,0.09047457575798035,-0.10025538504123688,9.740882873535156,0.6927531361579895,0.0014279079623520374,0.11311209946870804
1781546625679065,305793885,0.17154939472675323,-0.0055641839280724525,0.0035506358835846186,-0.9851534962654114,0.0789339616894722,-0.1028660386800766,9.743437767028809,0.7196463942527771,0.06365395337343216,0.08594981580972672
1781546625706392,305810552,0.17155304551124573,-0.005557588767260313,0.0035533017944544554,-0.9851529598236084,0.09788437187671661,-0.10121739655733109,9.710729598999023,0.6872079372406006,0.07888070493936539,0.12430483102798462
1781546625708567,305827219,0.17154988646507263,-0.005552578717470169,0.003559795441105962,-0.9851534366607666,0.11041539907455444,-0.09777708351612091,9.748379707336426,0.6590979695320129,0.07293856143951416,0.0730794221162796
1781546625736658,305843886,0.1715344786643982,-0.005531836301088333,0.0035605300217866898,-0.985156238079071,0.10763669013977051,-0.08247091621160507,9.740344047546387,0.7164064645767212,0.1730586141347885,-0.013177734799683094
1781546625766909,305860553,0.1715368926525116,-0.005541237536817789,0.0035698325373232365,-0.9851556420326233,0.09529877454042435,-0.0819559395313263,9.754573822021484,0.6234195232391357,-0.02159150503575802,0.11747905611991882
1781546625768982,305877220,0.17153528332710266,-0.005541599355638027,0.0035630150232464075,-0.9851560592651367,0.09296342730522156,-0.08463095128536224,9.745015144348145,0.7430307269096375,0.020842332392930984,0.07809951156377792
1781546625796454,305893887,0.17153577506542206,-0.005544789135456085,0.0035553500056266785,-0.9851559996604919,0.10086344927549362,-0.09079989045858383,9.749165534973145,0.7455793023109436,0.0006211079307831824,0.09497828781604767
1781546625798501,305910554,0.17153306305408478,-0.005545030813664198,0.003560146316885948,-0.9851564764976501,0.08978068083524704,-0.1115812435746193,9.750919342041016,0.6646431684494019,0.03527509421110153,0.08290190994739532
1781546625826455,305927221,0.17152667045593262,-0.0055504655465483665,0.0035606250166893005,-0.9851574897766113,0.09040294587612152,-0.10502605885267258,9.729808807373047,0.6876562237739563,-0.004866413306444883,0.052333150058984756
1781546625828643,305943888,0.1715269237756729,-0.0055532497353851795,0.003562561236321926,-0.9851574897766113,0.0922733023762703,-0.08746688067913055,9.744617462158203,0.6810864806175232,0.014631254598498344,0.09992153942584991
1781546625856430,305960555,0.17153802514076233,-0.005548456218093634,0.003562526311725378,-0.985155463218689,0.0932748019695282,-0.08711995929479599,9.742074012756348,0.7036640644073486,0.06330818682909012,0.169267937541008
1781546625858324,305977222,0.1715381145477295,-0.005548504646867514,0.003565138205885887,-0.985155463218689,0.09149377793073654,-0.07762514054775238,9.73458194732666,0.679703414440155,0.033981647342443466,0.09314698725938797
1781546625886668,305993889,0.17153702676296234,-0.005553669761866331,0.003558692755177617,-0.9851556420326233,0.08135862648487091,-0.08557506650686264,9.754667282104492,0.7349499464035034,-0.01134642492979765,0.08591140061616898
1781546625916572,306010556,0.17154724895954132,-0.005562103819102049,0.00356661225669086,-0.9851537346839905,0.09464060515165329,-0.08992015570402145,9.741291999816895,0.6342280507087708,-0.01689157448709011,0.16801290214061737
1781546625918719,306027223,0.17156155407428741,-0.00556949432939291,0.0035669917706400156,-0.9851512908935547,0.09713675826787949,-0.0752827376127243,9.72957992553711,0.6866443753242493,-0.01883813925087452,0.19931159913539886
1781546625946415,306043890,0.17156225442886353,-0.005558283533900976,0.0035676017869263887,-0.9851512312889099,0.09344620257616043,-0.08092959225177765,9.75037956237793,0.706558346748352,0.10783587396144867,0.10441657900810242
1781546625948223,306060557,0.171559140086174,-0.0055558523163199425,0.0035663761664181948,-0.9851517677307129,0.08241719752550125,-0.07605163753032684,9.727770805358887,0.7084792852401733,0.04631416127085686,0.07990521937608719
1781546625976573,306077224,0.1715676635503769,-0.0055559719912707806,0.003571262350305915,-0.9851502776145935,0.0839015394449234,-0.0880068689584732,9.733941078186035,0.6645150184631348,0.03588978946208954,0.15678171813488007
1781546625978815,306093891,0.17156021296977997,-0.005555705167353153,0.003576332237571478,-0.9851515889167786,0.0911753699183464,-0.08634037524461746,9.74226188659668,0.6630807518959045,0.039245057851076126,0.044098664075136185
1781546626006337,306110558,0.1715642362833023,-0.005562975537031889,0.003565989201888442,-0.9851508736610413,0.09764833748340607,-0.09950438886880875,9.762065887451172,0.7590771317481995,-0.03036385402083397,0.12284490466117859
1781546626008358,306127225,0.1715637445449829,-0.005568172316998243,0.0035745471250265837,-0.9851508736610413,0.08530326932668686,-0.07886967808008194,9.716730117797852,0.6332420110702515,0.006115031894296408,0.09485022723674774
1781546626036507,306143892,0.1715581715106964,-0.005572690162807703,0.0035700704902410507,-0.9851518273353577,0.0923377275466919,-0.08393357694149017,9.753274917602539,0.7221564054489136,-0.004469416104257107,0.05591892451047897
1781546626066296,306160559,0.17156687378883362,-0.005583186633884907,0.003567195264622569,-0.9851502776145935,0.09107884764671326,-0.07863364368677139,9.744457244873047,0.7047910094261169,-0.04359281063079834,0.15911246836185455
1781546626068426,306177226,0.17155878245830536,-0.005589187610894442,0.003571129171177745,-0.9851517081260681,0.08176282793283463,-0.10209356248378754,9.723320960998535,0.6633497476577759,-0.004495028872042894,0.037221651524305344
1781546626096673,306193893,0.17155301570892334,-0.005593950394541025,0.0035641370341181755,-0.9851526618003845,0.08427689969539642,-0.08880080282688141,9.74562931060791,0.7389968037605286,-0.009118122048676014,0.05685379356145859
1781546626098816,306210560,0.17155367136001587,-0.005585062317550182,0.0035616415552794933,-0.9851526021957397,0.10312341898679733,-0.08836095035076141,9.740362167358398,0.7247304916381836,0.08849827200174332,0.10008802264928818
1781546626126565,306227227,0.17154905200004578,-0.005579107906669378,0.0035615069791674614,-0.9851534366607666,0.09884994477033615,-0.08841099590063095,9.7483549118042,0.7052521109580994,0.0715554803609848,0.06280874460935593
1781546626128858,306243894,0.17155039310455322,-0.005581034813076258,0.003567174542695284,-0.9851531982421875,0.08591480553150177,-0.08401226252317429,9.759098052978516,0.6567800045013428,0.024799495935440063,0.10820724815130234
1781546626156548,306260561,0.17155000567436218,-0.005581068806350231,0.0035753161646425724,-0.9851532578468323,0.09197290241718292,-0.09665773063898087,9.735641479492188,0.6421168446540833,0.04064095392823219,0.0882805809378624
1781546626158641,306277228,0.17154763638973236,-0.0055710854940116405,0.003578521078452468,-0.9851536154747009,0.09067123383283615,-0.10065590590238571,9.738704681396484,0.6873487830162048,0.10267490893602371,0.08233841508626938
1781546626186904,306293895,0.17154601216316223,-0.00556770246475935,0.003568067913874984,-0.9851539731025696,0.10224376618862152,-0.10052718967199326,9.742199897766113,0.7721268534660339,0.041844747960567474,0.08646207302808762
1781546626216890,306310562,0.17154332995414734,-0.005575270392000675,0.0035733922850340605,-0.985154390335083,0.0999549925327301,-0.09538102149963379,9.719104766845703,0.6523042321205139,-0.013664375990629196,0.07633864879608154
1781546626218535,306327229,0.17153982818126678,-0.005576471332460642,0.0035823120269924402,-0.985154926776886,0.09265953302383423,-0.08603639155626297,9.746581077575684,0.6354830265045166,0.033674292266368866,0.07742077857255936
1781546626246382,306343896,0.17154374718666077,-0.0055694617331027985,0.003585661528632045,-0.9851543307304382,0.09202296286821365,-0.08680170029401779,9.73271656036377,0.6831994652748108,0.08247928321361542,0.12844128906726837
1781546626248029,306360563,0.17154380679130554,-0.005565004888921976,0.0035828633699566126,-0.9851543307304382,0.11654859781265259,-0.06848794221878052,9.740225791931152,0.7215673327445984,0.05814722925424576,0.09253228455781937
1781546626276615,306377230,0.1715378761291504,-0.005573425907641649,0.0035812126006931067,-0.9851552844047546,0.08196303248405457,-0.07811867445707321,9.766544342041016,0.6984263062477112,-0.02761048823595047,0.06122075393795967
1781546626278328,306393897,0.1715313196182251,-0.0055626328103244305,0.0035859234631061554,-0.9851564764976501,0.0843341201543808,-0.08011419326066971,9.739847183227539,0.6779490113258362,0.11012820899486542,0.051769670099020004
1781546626306543,306410564,0.1715211570262909,-0.005568673834204674,0.003590308828279376,-0.9851582646369934,0.08676594495773315,-0.09046374261379242,9.734650611877441,0.660224974155426,-0.004238902125507593,0.027924245223402977
1781546626308778,306427231,0.17152270674705505,-0.005563595797866583,0.0035967854782938957,-0.9851580262184143,0.1008310616016388,-0.09749101102352142,9.73068904876709,0.6595205664634705,0.0731818825006485,0.11277911067008972
1781546626336664,306443898,0.17151618003845215,-0.005556186195462942,0.0036046444438397884,-0.9851592183113098,0.10844133049249649,-0.1020721048116684,9.74338436126709,0.6526307463645935,0.09090586751699448,0.04934926703572273
1781546626366538,306460565,0.1715179830789566,-0.005556022748351097,0.0036096149124205112,-0.9851588010787964,0.10552314668893814,-0.08993446081876755,9.739314079284668,0.6638236045837402,0.03822054713964462,0.10696503520011902
1781546626368860,306477232,0.17152979969978333,-0.005560796707868576,0.003603781806305051,-0.9851567149162292,0.087062768638134,-0.09868544340133667,9.748201370239258,0.731645941734314,-0.00832412764430046,0.17390382289886475
1781546626397002,306493899,0.17154011130332947,-0.005564344115555286,0.0036012514028698206,-0.9851548671722412,0.09511979669332504,-0.08148746192455292,9.750665664672852,0.7106691002845764,0.0038867266848683357,0.17223897576332092
1781546626398864,306510566,0.17153939604759216,-0.00557134672999382,0.003595865098759532,-0.9851549863815308,0.09925396740436554,-0.09283477067947388,9.7448148727417,0.7255629301071167,-0.022513560950756073,0.09285243600606918
1781546626427040,306527233,0.1715228408575058,-0.005572143010795116,0.0035866298712790012,-0.9851579070091248,0.09342484176158905,-0.08008558303117752,9.73920726776123,0.7585135698318481,0.015463665127754211,-0.018325883895158768
1781546626430104,306543900,0.17151354253292084,-0.005583265796303749,0.0035790393594652414,-0.9851594567298889,0.08869709074497223,-0.09469081461429596,9.756913185119629,0.7354622483253479,-0.05280057713389397,0.0341225191950798
1781546626456636,306560567,0.17151308059692383,-0.005591121502220631,0.0035816803574562073,-0.9851595163345337,0.08325410634279251,-0.09645389020442963,9.731378555297852,0.6702650785446167,-0.018902171403169632,0.10006241500377655
1781546626458980,306577234,0.1715129315853119,-0.005598151590675116,0.0035759841557592154,-0.9851595163345337,0.08538562059402466,-0.09680791944265366,9.736873626708984,0.727765679359436,-0.023115459829568863,0.10148391872644424
1781546626486806,306593901,0.17152459919452667,-0.005599303636699915,0.003563694888725877,-0.9851576089859009,0.09984055161476135,-0.07760369777679443,9.747282028198242,0.7796825766563416,0.008625076152384281,0.17454414069652557
1781546626516592,306610568,0.17151352763175964,-0.005596197210252285,0.003563776845112443,-0.9851595163345337,0.09112533926963806,-0.08885444700717926,9.765989303588867,0.70018070936203,0.05274294689297676,0.01997150108218193
1781546626519127,306627235,0.1715116947889328,-0.0056082443334162235,0.003563535399734974,-0.9851598143577576,0.09467284381389618,-0.0759836733341217,9.733760833740234,0.6848899722099304,-0.05067472532391548,0.09546492993831635
1781546626546521,306643902,0.17151693999767303,-0.005600880365818739,0.0035424535162746906,-0.9851589798927307,0.11443878710269928,-0.07799313962459564,9.741186141967773,0.8490033149719238,0.05611101910471916,0.1357152909040451
1781546626548564,306660569,0.1715131551027298,-0.005605929531157017,0.0035374113358557224,-0.9851595759391785,0.09168322384357452,-0.08549638837575912,9.737554550170898,0.7253580689430237,-0.008759543299674988,0.07138899713754654
1781546626576540,306677236,0.171523317694664,-0.0056028119288384914,0.0035395941231399775,-0.98515784740448,0.10231529176235199,-0.09044943749904633,9.743186950683594,0.6865803599357605,0.05461267754435539,0.1671292632818222
1781546626578628,306693903,0.17151567339897156,-0.0056046838872134686,0.0035401403438299894,-0.985159158706665,0.11177793145179749,-0.09920041263103485,9.740795135498047,0.6912162899971008,0.019382409751415253,0.05168002471327782
1781546626607028,306710570,0.17150594294071198,-0.00560055673122406,0.0035494547337293625,-0.9851608276367188,0.09658978134393692,-0.09587454050779343,9.743795394897461,0.6387999057769775,0.07050536572933197,0.027757761999964714
1781546626608064,306727237,0.171498641371727,-0.00559229264035821,0.003541243262588978,-0.9851621985435486,0.08652991056442261,-0.08818212151527405,9.749391555786133,0.7624452710151672,0.07783059030771255,0.039552412927150726
1781546626636759,306743904,0.17149721086025238,-0.0055957213044166565,0.0035518286749720573,-0.9851623773574829,0.09560990333557129,-0.08806052803993225,9.712166786193848,0.6215882301330566,0.020560596138238907,0.08842144161462784
1781546626666457,306760571,0.17150311172008514,-0.005596628412604332,0.003563757287338376,-0.9851612448692322,0.08505293726921082,-0.084044449031353,9.733992576599121,0.615684449672699,0.038988929241895676,0.13933947682380676
1781546626667965,306777238,0.17149749398231506,-0.005586016457527876,0.003570972476154566,-0.9851623773574829,0.09710118174552917,-0.09567427635192871,9.734110832214355,0.6607499718666077,0.1118442490696907,0.059018056839704514
1781546626696491,306793905,0.17148397862911224,-0.005583914928138256,0.003573233960196376,-0.9851647019386292,0.098660409450531,-0.08455584198236465,9.75240707397461,0.6839935779571533,0.048606500029563904,0.003246409585699439
1781546626698335,306810572,0.1714833825826645,-0.005581391043961048,0.003574380185455084,-0.9851648211479187,0.09346775710582733,-0.08426259458065033,9.7516450881958,0.6925097107887268,0.04973345622420311,0.093172587454319
1781546626726978,306827239,0.17148099839687347,-0.0055837128311395645,0.0035734043922275305,-0.9851652383804321,0.10035195201635361,-0.08727376163005829,9.741252899169922,0.7010260224342346,0.014477577991783619,0.08107059448957443
1781546626727837,306843906,0.1714760661125183,-0.005594224669039249,0.003562714671716094,-0.985166072845459,0.10144276171922684,-0.09351781755685806,9.741787910461426,0.7572329640388489,-0.0524291917681694,0.0676751509308815
1781546626757016,306860573,0.1714698225259781,-0.0055772485211491585,0.003553913440555334,-0.9851672649383545,0.08537837117910385,-0.0894087553024292,9.74959945678711,0.7767243385314941,0.13604825735092163,0.05420287325978279
1781546626758598,306877240,0.17146044969558716,-0.005578973330557346,0.0035556789953261614,-0.9851688742637634,0.08480260521173477,-0.08586831390857697,9.753880500793457,0.6828922033309937,0.0219820998609066,0.034084100276231766
1781546626786722,306893907,0.17145229876041412,-0.005586325190961361,0.003550558816641569,-0.9851702451705933,0.09296704083681107,-0.08461664617061615,9.733070373535156,0.7231425046920776,-0.02435767464339733,0.04811985790729523
1781546626818706,306910574,0.1714506298303604,-0.0055955881252884865,0.0035617572721093893,-0.9851704239845276,0.10001221299171448,-0.09202296286821365,9.733720779418945,0.6105747818946838,-0.018236244097352028,0.08959963172674179
1781546626819713,306927241,0.17146115005016327,-0.005609757732599974,0.0035600827541202307,-0.9851685762405396,0.09851004183292389,-0.09744448959827423,9.731118202209473,0.6924200654029846,-0.06702842563390732,0.17451854050159454
1781546626846550,306943908,0.17147277295589447,-0.005608914885669947,0.003557929303497076,-0.9851665496826172,0.08255674690008163,-0.08489558845758438,9.723138809204102,0.7133200168609619,0.03409690409898758,0.1806911826133728
1781546626848374,306960575,0.17146965861320496,-0.005611218046396971,0.0035547849256545305,-0.9851670861244202,0.09627515077590942,-0.09618208557367325,9.73963451385498,0.7158429026603699,0.012108402326703072,0.07748480886220932
1781546626876544,306977242,0.17148475348949432,-0.005607526283711195,0.0035546310245990753,-0.98516446352005,0.10279112309217453,-0.08185578137636185,9.766910552978516,0.7032542824745178,0.055675603449344635,0.19993913173675537
1781546626879718,306993909,0.1714838296175003,-0.0056084212847054005,0.003546695923432708,-0.9851646423339844,0.10120666772127151,-0.09030996263027191,9.757298469543457,0.7501255869865417,0.015847858041524887,0.09847443550825119
1781546626906753,307010576,0.1714751273393631,-0.005605089478194714,0.0035428653936833143,-0.9851661324501038,0.10058797895908356,-0.07768595218658447,9.741517066955566,0.7268051505088806,0.049720648676157,0.029525037854909897
1781546626908602,307027243,0.17146818339824677,-0.005610608030110598,0.003547971835359931,-0.9851674437522888,0.10163223743438721,-0.0910395085811615,9.743487358093262,0.6559733152389526,0.00019849841191899031,0.04955416917800903
1781546626936687,307043910,0.1714712530374527,-0.005624121055006981,0.0035537276417016983,-0.9851668477058411,0.08765294402837753,-0.09724064916372299,9.736355781555176,0.6425650715827942,-0.05355615168809891,0.12379258871078491
1781546626966462,307060577,0.17148183286190033,-0.005616576876491308,0.003558550262823701,-0.9851649403572083,0.08936600387096405,-0.09349633008241653,9.74053955078125,0.673914909362793,0.0877683088183403,0.17319947481155396
1781546626968451,307077244,0.17148450016975403,-0.005619787611067295,0.0035647975746542215,-0.98516446352005,0.10479012131690979,-0.08348654955625534,9.765058517456055,0.6512092351913452,0.016936397179961205,0.11019224673509598
1781546626996548,307093911,0.1714809089899063,-0.005634071305394173,0.0035723079927265644,-0.9851648807525635,0.10391028225421906,-0.0800212174654007,9.729887008666992,0.629502534866333,-0.056450385600328445,0.07152986526489258
1781546626998525,307110578,0.17148612439632416,-0.0056368522346019745,0.003576477523893118,-0.9851639270782471,0.09688302874565125,-0.0943618044257164,9.737421989440918,0.66602623462677,0.017230944707989693,0.13708557188510895
1781546627026378,307127245,0.1714850664138794,-0.0056356810964643955,0.0035738570149987936,-0.9851641654968262,0.11267556250095367,-0.07124162465333939,9.74280834197998,0.7163552045822144,0.03620995581150055,0.09070096909999847
1781546627028256,307143912,0.17148180305957794,-0.005631232168525457,0.003570564789697528,-0.9851647615432739,0.09258808940649033,-0.08426615595817566,9.74675178527832,0.7246409058570862,0.05766058340668678,0.08251771330833435
1781546627056364,307160579,0.17147865891456604,-0.005630166735500097,0.003560880897566676,-0.9851653575897217,0.09583870321512222,-0.07071235030889511,9.748544692993164,0.7639947533607483,0.027296733111143112,0.07030045986175537
1781546627058424,307177246,0.1714710295200348,-0.005629663355648518,0.003566051134839654,-0.9851666688919067,0.09200865775346756,-0.08315397053956985,9.730673789978027,0.6625364422798157,0.041172415018081665,0.04174869880080223
1781546627086587,307193913,0.17152364552021027,-0.005577435716986656,0.0035579632967710495,-0.9851577877998352,0.0845736563205719,-0.08826438337564468,9.752053260803223,0.6982085704803467,0.058428965508937836,0.06886614859104156
1781546627117272,307210580,0.1715274304151535,-0.0055762953124940395,0.003552675014361739,-0.9851572513580322,0.0928596779704094,-0.0805862694978714,9.740126609802246,0.7344505786895752,0.03247050195932388,0.11806812882423401
1781546627118314,307227247,0.17153187096118927,-0.005581221543252468,0.003558586584404111,-0.9851564764976501,0.09641812741756439,-0.08855047076940536,9.73750114440918,0.6513501405715942,0.004514238331466913,0.12821075320243835
1781546627146443,307243914,0.17152619361877441,-0.005567481275647879,0.0035639822017401457,-0.9851574897766113,0.10427863150835037,-0.10332735627889633,9.733820915222168,0.6766171455383301,0.13068239390850067,0.053024694323539734
1781546627148551,307260581,0.1715291142463684,-0.005565463099628687,0.003565373597666621,-0.9851570129394531,0.09486594051122665,-0.09505917876958847,9.754417419433594,0.6901789903640747,0.04626293480396271,0.1157117709517479
1781546627176497,307277248,0.17153066396713257,-0.005567940417677164,0.003563758684322238,-0.9851566553115845,0.1023009866476059,-0.09008466452360153,9.725666999816895,0.7051880359649658,0.012338917702436447,0.10345608741044998
1781546627178561,307293915,0.17151817679405212,-0.0055620502680540085,0.003572000889107585,-0.9851589202880859,0.08968057483434677,-0.09677573293447495,9.74349308013916,0.647841215133667,0.08100656419992447,0.01303046103566885
1781546627207363,307310582,0.17151564359664917,-0.005557795520871878,0.0035691908560693264,-0.9851592779159546,0.0938396081328392,-0.08691973239183426,9.727770805358887,0.7209782600402832,0.0566616952419281,0.075627900660038
1781546627208398,307327249,0.17153067886829376,-0.005558349657803774,0.003564852522686124,-0.9851566553115845,0.09615367650985718,-0.09447979927062988,9.742717742919922,0.7264338135719299,0.021751586347818375,0.19520080089569092
1781546627237171,307343916,0.17153213918209076,-0.005559944082051516,0.003564337966963649,-0.9851564764976501,0.0972120463848114,-0.08846106380224228,9.737436294555664,0.6987208127975464,0.019638536497950554,0.0999983698129654
1781546627266451,307360583,0.17153450846672058,-0.005550515837967396,0.0035677202977240086,-0.9851560592651367,0.08932650834321976,-0.08688395470380783,9.745526313781738,0.6854790449142456,0.09880738705396652,0.11631366610527039
1781546627268585,307377250,0.1715450882911682,-0.005544324871152639,0.0035737280268222094,-0.9851542711257935,0.09458368271589279,-0.0847596600651741,9.74942684173584,0.6640539765357971,0.07978995889425278,0.16570773720741272
1781546627296479,307393917,0.17154115438461304,-0.005550555884838104,0.0035644546151161194,-0.985154926776886,0.09107169508934021,-0.09564566612243652,9.742890357971191,0.7524626851081848,-0.021937275305390358,0.06522274017333984
1781546627298383,307410584,0.17155171930789948,-0.005550149362534285,0.003562797326594591,-0.985153079032898,0.08207753300666809,-0.0877172127366066,9.726890563964844,0.7091964483261108,0.03159966692328453,0.16296717524528503
1781546627326388,307427251,0.17155107855796814,-0.005561125930398703,0.0035695473197847605,-0.985153079032898,0.09213025122880936,-0.08214548230171204,9.718815803527832,0.638467013835907,-0.035345520824193954,0.0964382141828537
1781546627328246,307443918,0.17155778408050537,-0.0055606784299016,0.0035663137678056955,-0.9851519465446472,0.08877576887607574,-0.09370020776987076,9.74045467376709,0.7197616696357727,0.030050097033381462,0.1438857465982437
1781546627356394,307460585,0.17155224084854126,-0.005554746836423874,0.0035627882461994886,-0.9851529002189636,0.09136494249105453,-0.09050307422876358,9.766200065612793,0.7279449105262756,0.06718850880861282,0.06401253491640091
1781546627358286,307477252,0.17154791951179504,-0.005551846232265234,0.0035662753507494926,-0.9851537346839905,0.10951068252325058,-0.08547848463058472,9.751321792602539,0.6767322421073914,0.055009666830301285,0.06446076184511185
1781546627386630,307493919,0.1715468466281891,-0.005556875839829445,0.0035725245252251625,-0.9851539134979248,0.0882214605808258,-0.08112984150648117,9.769479751586914,0.6487504243850708,0.004411787260323763,0.08904895186424255
1781546627416454,307510586,0.17154014110565186,-0.005547378212213516,0.003574684029445052,-0.9851551651954651,0.09160451591014862,-0.08695191890001297,9.711552619934082,0.6934702396392822,0.09821829199790955,0.04353518411517143
1781546627419542,307527253,0.17154325544834137,-0.005550778470933437,0.003586173290386796,-0.9851544499397278,0.09657547622919083,-0.10510115325450897,9.745833396911621,0.6154155731201172,0.021431423723697662,0.11995065957307816
1781546627447295,307543920,0.17154911160469055,-0.005544326733797789,0.003582136007025838,-0.9851534962654114,0.0950770452618599,-0.09022770822048187,9.747539520263672,0.7322990894317627,0.06982661038637161,0.13793079555034637
1781546627448001,307560587,0.17154671251773834,-0.005551304668188095,0.0035820198245346546,-0.98515385389328,0.0984315276145935,-0.08323264867067337,9.743852615356445,0.6895130276679993,-0.01623845100402832,0.08018694818019867
1781546627476552,307577254,0.1715477705001831,-0.0055558932945132256,0.0035926674026995897,-0.9851536154747009,0.08979140967130661,-0.09776993095874786,9.7518949508667,0.6196672320365906,0.012556624598801136,0.09858968108892441
1781546627478596,307593921,0.17154094576835632,-0.005554222501814365,0.0035888999700546265,-0.9851548075675964,0.08917272835969925,-0.08592911064624786,9.730881690979004,0.7243207693099976,0.03820774331688881,0.04443162679672241
1781546627506474,307610588,0.17154189944267273,-0.00555399851873517,0.0035803017672151327,-0.9851546883583069,0.07736051827669144,-0.09211236983537674,9.73961067199707,0.7556194067001343,0.02241751365363598,0.10313592851161957
1781546627508533,307627255,0.17154894769191742,-0.005542181432247162,0.00357829756103456,-0.9851535558700562,0.09853881597518921,-0.07508247345685959,9.737239837646484,0.724909782409668,0.10851459950208664,0.14730504155158997
1781546627537141,307643922,0.17154504358768463,-0.00553756020963192,0.003573518479242921,-0.9851542115211487,0.09315668791532516,-0.09157592058181763,9.750370979309082,0.734770655632019,0.056879401206970215,0.06959610432386398
1781546627566667,307660589,0.17155060172080994,-0.005543215200304985,0.0035715349949896336,-0.9851532578468323,0.0927310585975647,-0.08165911585092545,9.752278327941895,0.7040355205535889,-0.009745633229613304,0.13319244980812073
1781546627568870,307677256,0.17154307663440704,-0.005540937650948763,0.0035706725902855396,-0.9851546883583069,0.0863153412938118,-0.09257012605667114,9.751026153564453,0.7054057717323303,0.04568665102124214,0.04403463378548622
1781546627596924,307693923,0.17154812812805176,-0.0055422657169401646,0.003574208589270711,-0.9851537346839905,0.09595679491758347,-0.09843510389328003,9.741009712219238,0.6717762351036072,0.02613135613501072,0.12789061665534973
1781546627599212,307710590,0.17154526710510254,-0.0055453041568398476,0.0035771443508565426,-0.9851542115211487,0.09544546157121658,-0.08740249276161194,9.744892120361328,0.6735051870346069,0.01410619542002678,0.06948085129261017
1781546627626491,307727257,0.1715494990348816,-0.005547061562538147,0.0035702211316674948,-0.9851534366607666,0.08131235092878342,-0.09453345090150833,9.75088882446289,0.7420318722724915,0.01087899412959814,0.12607209384441376
1781546627628696,307743924,0.17154493927955627,-0.005545678548514843,0.003568883752450347,-0.9851543307304382,0.08288218080997467,-0.08850755542516708,9.748916625976562,0.7077620625495911,0.038988932967185974,0.06735499203205109
1781546627656464,307760591,0.17154237627983093,-0.005536605603992939,0.0035728290677070618,-0.9851548075675964,0.0874275416135788,-0.08921206742525101,9.731314659118652,0.6809584498405457,0.09727063030004501,0.07631944864988327
1781546627658842,307777258,0.1715535819530487,-0.005525686778128147,0.0035851309075951576,-0.9851527214050293,0.09185846149921417,-0.10373146831989288,9.72312068939209,0.6270692944526672,0.11919510364532471,0.17632421851158142
1781546627686673,307793925,0.17155614495277405,-0.0055227759294211864,0.0035874121822416782,-0.9851523637771606,0.10033049434423447,-0.08837523311376572,9.752413749694824,0.6851845383644104,0.053421683609485626,0.11484094709157944
1781546627716955,307810592,0.17154890298843384,-0.005522838328033686,0.0035791639238595963,-0.9851536750793457,0.07782184332609177,-0.0898808166384697,9.750933647155762,0.7526355981826782,0.021188104525208473,0.04674958065152168
1781546627718954,307827259,0.17154152691364288,-0.005524622742086649,0.0035885912366211414,-0.9851548671722412,0.0898665115237236,-0.09466935694217682,9.729140281677246,0.630847156047821,0.030319033190608025,0.04549455642700195
1781546627747121,307843926,0.1715463399887085,-0.0055206548422575,0.003587333718314767,-0.9851540327072144,0.09203369170427322,-0.0929456278681755,9.726042747497559,0.7104642987251282,0.05632873252034187,0.12710942327976227
1781546627748798,307860593,0.1715390384197235,-0.00552638852968812,0.003590000094845891,-0.9851553440093994,0.0947122722864151,-0.09504485875368118,9.723933219909668,0.6719556450843811,-0.004354158416390419,0.044188305735588074
1781546627776590,307877260,0.17154234647750854,-0.005534084513783455,0.003591021755710244,-0.9851547479629517,0.08842161297798157,-0.07909498363733292,9.719581604003906,0.6811889410018921,-0.01993948593735695,0.11814497411251068
1781546627779207,307893927,0.1715429425239563,-0.005531947594136,0.00358688086271286,-0.9851546287536621,0.09318533539772034,-0.09625359624624252,9.728856086730957,0.7278168797492981,0.04060253128409386,0.10550510883331299
1781546627806582,307910594,0.1715496927499771,-0.005538011901080608,0.0035906778648495674,-0.9851534366607666,0.08458100259304047,-0.07461398094892502,9.750434875488281,0.6643998026847839,-0.005673212930560112,0.1387760043144226
1781546627808971,307927261,0.17155303061008453,-0.005538740195333958,0.0035915488842874765,-0.9851528406143188,0.08797112107276917,-0.0854928120970726,9.763833045959473,0.6905247569084167,0.0270277988165617,0.12349802255630493
1781546627836609,307943928,0.17155398428440094,-0.005542004480957985,0.003598226001486182,-0.9851526618003845,0.10138547420501709,-0.09449770301580429,9.753418922424316,0.6479949355125427,0.016872365027666092,0.09599000215530396
1781546627866382,307960595,0.17154742777347565,-0.0055454629473388195,0.003610342973843217,-0.9851537346839905,0.08413027971982956,-0.07788621634244919,9.74777889251709,0.6106899976730347,0.022199807688593864,0.04202403500676155
1781546627868283,307977262,0.1715516448020935,-0.0055474028922617435,0.003611588617786765,-0.9851530194282532,0.0909787118434906,-0.08966267108917236,9.744220733642578,0.6864010691642761,0.019331185147166252,0.1223454549908638
1781546627897209,307993929,0.17154677212238312,-0.005549735389649868,0.003613515989854932,-0.9851537346839905,0.09647177159786224,-0.08502790331840515,9.746180534362793,0.6811120510101318,0.01775600202381611,0.05670011043548584
1781546627898025,308010596,0.17153453826904297,-0.005553348921239376,0.00361784384585917,-0.9851559400558472,0.10657455772161484,-0.08492418378591537,9.737045288085938,0.6632216572761536,0.012069985270500183,0.011237571947276592
1781546627927432,308027263,0.17154420912265778,-0.005550529807806015,0.0036270415876060724,-0.9851540923118591,0.10795125365257263,-0.09115754812955856,9.734322547912598,0.6384028792381287,0.060746923089027405,0.16057240962982178
1781546627928510,308043930,0.1715507060289383,-0.005553044378757477,0.0036261160857975483,-0.985153079032898,0.09670422226190567,-0.09536314010620117,9.742432594299316,0.7006545662879944,0.012748721055686474,0.145806685090065
1781546627957406,308060597,0.17156019806861877,-0.005547049921005964,0.0036347105633467436,-0.985151469707489,0.10307716578245163,-0.07353752851486206,9.741305351257324,0.6462531685829163,0.08159565180540085,0.15767817199230194
1781546627958708,308077264,0.17156490683555603,-0.005549367051571608,0.0036428978201001883,-0.9851505756378174,0.08691971749067307,-0.08676236867904663,9.731911659240723,0.6391456723213196,0.024914752691984177,0.12769851088523865
1781546627987284,308093931,0.17156191170215607,-0.00554534699767828,0.003637648420408368,-0.9851511120796204,0.09419015049934387,-0.09503770619630814,9.73598861694336,0.7371910810470581,0.05225631222128868,0.0730794295668602
1781546628017135,308110598,0.1715606153011322,-0.005543198436498642,0.0036335764452815056,-0.9851513504981995,0.09974757581949234,-0.0845629945397377,9.7481689453125,0.7270612716674805,0.04097391292452812,0.08165968209505081
1781546628019086,308127265,0.17154936492443085,-0.005550924688577652,0.003629226004704833,-0.9851532578468323,0.0878710076212883,-0.0900631919503212,9.754687309265137,0.7170083522796631,-0.02595847100019455,0.012671883217990398
1781546628046969,308143932,0.17155736684799194,-0.005545185878872871,0.003636921290308237,-0.9851518869400024,0.0917869359254837,-0.08625096827745438,9.752521514892578,0.6519777178764343,0.07884229719638824,0.14973823726177216
1781546628048007,308160599,0.17155829071998596,-0.005544772371649742,0.0036281973589211702,-0.9851518273353577,0.09251280128955841,-0.0909036174416542,9.736550331115723,0.7566695809364319,0.023595700040459633,0.10384028404951096
1781546628076464,308177266,0.17155779898166656,-0.005545195657759905,0.003629166167229414,-0.9851518273353577,0.10160720348358154,-0.09412577748298645,9.728546142578125,0.6900253891944885,0.029422590509057045,0.09428675472736359
1781546628078944,308193933,0.17156480252742767,-0.005549013148993254,0.003638437483459711,-0.9851505160331726,0.09656474739313126,-0.08742396533489227,9.755642890930176,0.6299379467964172,0.015975922346115112,0.14332225918769836
1781546628107175,308210600,0.1715727597475052,-0.0055370572954416275,0.0036472612991929054,-0.9851492047309875,0.08820000290870667,-0.08917630463838577,9.739614486694336,0.6515294313430786,0.12229424715042114,0.15077556669712067
1781546628108313,308227267,0.17157721519470215,-0.005541317630559206,0.0036408626474440098,-0.9851484298706055,0.08930862694978714,-0.09423306584358215,9.732197761535645,0.7356159090995789,-0.005391472950577736,0.1214233934879303
1781546628136686,308243934,0.1715852916240692,-0.005534390453249216,0.0036458666436374187,-0.9851470589637756,0.08766714483499527,-0.09219104796648026,9.73888111114502,0.6715457439422607,0.08370869606733322,0.15323439240455627
1781546628166881,308260601,0.17158576846122742,-0.005532477982342243,0.0036441506817936897,-0.9851469397544861,0.09757324308156967,-0.08098321408033371,9.741044998168945,0.7109380960464478,0.042100876569747925,0.09298050403594971
1781546628168356,308277268,0.17158553004264832,-0.005537757184356451,0.0036482377909123898,-0.9851469993591309,0.0943761095404625,-0.09187276661396027,9.748790740966797,0.6631960868835449,0.00019849841191899031,0.09376168996095657
1781546628196465,308293935,0.1715995818376541,-0.0055373855866491795,0.0036479460541158915,-0.9851445555686951,0.11780007928609848,-0.08214907348155975,9.740934371948242,0.6999245882034302,0.03285468742251396,0.19349752366542816
1781546628200043,308310602,0.1716087907552719,-0.005544766318053007,0.0036456668749451637,-0.9851428866386414,0.08832158893346786,-0.08607930690050125,9.740372657775879,0.704073965549469,-0.02184763178229332,0.16026507318019867
1781546628226452,308327269,0.17161360383033752,-0.005539054982364178,0.0036431087646633387,-0.9851419925689697,0.09655044227838516,-0.081988126039505,9.748823165893555,0.7213111519813538,0.06670185923576355,0.12335715442895889
1781546628228799,308343936,0.1716178059577942,-0.00553843704983592,0.003657994559034705,-0.9851412773132324,0.10274086147546768,-0.07569042593240738,9.752867698669434,0.5972049832344055,0.052678920328617096,0.13314121961593628
1781546628256461,308360603,0.1716219037771225,-0.005529460031539202,0.0036554376129060984,-0.9851406216621399,0.09676514565944672,-0.08753122389316559,9.760477066040039,0.7251532077789307,0.08881844580173492,0.12488112598657608
1781546628258273,308377270,0.17161455750465393,-0.0055212825536727905,0.0036529656499624252,-0.985141932964325,0.09539175033569336,-0.08685892075300217,9.751534461975098,0.7232449650764465,0.08384957164525986,0.04541771858930588
1781546628286709,308393937,0.17161200940608978,-0.005523796193301678,0.0036581908352673054,-0.9851424098014832,0.10332013666629791,-0.08865060657262802,9.766669273376465,0.6584192514419556,0.020458143204450607,0.07254157215356827
1781546628316464,308410604,0.17161138355731964,-0.005517386831343174,0.0036605040077120066,-0.9851425886154175,0.09796313941478729,-0.07857998460531235,9.732446670532227,0.6888342499732971,0.0773567482829094,0.09196878969669342
1781546628318512,308427271,0.1716126650571823,-0.005518490914255381,0.003651754232123494,-0.9851424694061279,0.09125775843858719,-0.09148652106523514,9.746683120727539,0.7548894882202148,0.013414651155471802,0.09911473840475082
1781546628347130,308443938,0.17160648107528687,-0.00552050955593586,0.0036532951053231955,-0.9851434230804443,0.10978956520557404,-0.08854331821203232,9.750490188598633,0.6839806437492371,0.01952327974140644,0.051769666373729706
1781546628349125,308460605,0.17160513997077942,-0.005518164485692978,0.0036595962010324,-0.9851436614990234,0.08055049180984497,-0.0787409320473671,9.751058578491211,0.6571258902549744,0.05451023206114769,0.09187915921211243
1781546628376420,308477272,0.17160256206989288,-0.005516126751899719,0.003659510752186179,-0.9851440787315369,0.09349285811185837,-0.09802024811506271,9.741133689880371,0.6998733878135681,0.04496949911117554,0.07859896868467331
1781546628378746,308493939,0.17160819470882416,-0.005512875970453024,0.003665078664198518,-0.9851430654525757,0.10764039307832718,-0.07929879426956177,9.740453720092773,0.6633368730545044,0.059581540524959564,0.13853266835212708
1781546628406758,308510606,0.17161010205745697,-0.005511829629540443,0.0036583791952580214,-0.985142707824707,0.0987498089671135,-0.08073645830154419,9.74313735961914,0.7436198592185974,0.030383063480257988,0.10267491638660431
1781546628407987,308527273,0.17161040008068085,-0.005515960045158863,0.0036586616188287735,-0.9851427674293518,0.0938432589173317,-0.09237700700759888,9.72716236114502,0.6901405453681946,0.0035537618678063154,0.10048501938581467
1781546628436969,308543940,0.17160330712795258,-0.005522413644939661,0.0036453690845519304,-0.9851440191268921,0.0885254368185997,-0.08203461766242981,9.740426063537598,0.7791446447372437,-0.02800748497247696,0.05165441334247589
1781546628466602,308560607,0.1716030389070511,-0.005524679087102413,0.0036369727458804846,-0.9851440787315369,0.09527016431093216,-0.0892406776547432,9.751126289367676,0.7512269020080566,0.0059613557532429695,0.09436359256505966
1781546628468519,308577274,0.17160500586032867,-0.005517425946891308,0.003640870563685894,-0.985143780708313,0.10141060501337051,-0.08651915937662125,9.76846981048584,0.6790503263473511,0.08497653901576996,0.10290542244911194
1781546628496598,308593941,0.171605184674263,-0.005505596753209829,0.003640158334746957,-0.985143780708313,0.1049831435084343,-0.08774224668741226,9.746756553649902,0.7157660722732544,0.11048676073551178,0.09807742387056351
1781546628499100,308610608,0.17159873247146606,-0.0055077108554542065,0.0036450743209570646,-0.985144853591919,0.10093487799167633,-0.09520579129457474,9.738455772399902,0.6608396172523499,0.022955380380153656,0.04932365193963051
1781546628526728,308627275,0.17159892618656158,-0.0055173542350530624,0.0036520157009363174,-0.9851447343826294,0.0953880026936531,-0.08821430057287216,9.750988006591797,0.6385822296142578,-0.025894438847899437,0.09688643366098404
1781546628529147,308643942,0.1715935915708542,-0.005513299722224474,0.0036495819222182035,-0.985145628452301,0.09380749613046646,-0.07346602529287338,9.755070686340332,0.7181609272956848,0.05595734715461731,0.06398692727088928
1781546628557181,308660609,0.17161276936531067,-0.0055186133831739426,0.003656073473393917,-0.9851422905921936,0.0949268490076065,-0.09175117313861847,9.75091552734375,0.6473930478096008,0.0022859335877001286,0.2318013310432434
1781546628558750,308677276,0.17160961031913757,-0.005510285962373018,0.0036497425753623247,-0.9851429462432861,0.09491969645023346,-0.08607573062181473,9.753108024597168,0.7495876550674438,0.08023818582296371,0.0773695558309555
1781546628586488,308693943,0.17160318791866302,-0.005503599066287279,0.003651749575510621,-0.9851440787315369,0.09533806145191193,-0.10335598140954971,9.738248825073242,0.6911394596099854,0.07904719561338425,0.056789763271808624
1781546628588513,308710610,0.171603262424469,-0.005506864748895168,0.003648214740678668,-0.9851440787315369,0.09942571818828583,-0.1030627191066742,9.732390403747559,0.717174768447876,0.004898428451269865,0.10126621276140213
1781546628616694,308727277,0.17161071300506592,-0.005504366010427475,0.00364877306856215,-0.9851427674293518,0.0876564159989357,-0.09538102149963379,9.746284484863281,0.6962875723838806,0.04868333786725998,0.14186233282089233
1781546628646490,308743944,0.1716194599866867,-0.005500691011548042,0.0036463262513279915,-0.9851412773132324,0.10671760141849518,-0.0913291797041893,9.747088432312012,0.7181480526924133,0.05299907177686691,0.15419484674930573
1781546628649041,308760611,0.1716214120388031,-0.005494062788784504,0.003643794683739543,-0.9851409792900085,0.08311105519533157,-0.09194786846637726,9.731586456298828,0.721977174282074,0.07314345985651016,0.10764376819133759
1781546628676475,308777278,0.1716146022081375,-0.005491894669830799,0.003646276658400893,-0.985142171382904,0.09764118492603302,-0.0957028865814209,9.739224433898926,0.6824055314064026,0.04908033087849617,0.0503353513777256
1781546628678722,308793945,0.171614408493042,-0.005493495147675276,0.0036375783383846283,-0.9851422905921936,0.10980744659900665,-0.0901704877614975,9.747474670410156,0.7539290189743042,0.010187450796365738,0.09428675472736359
1781546628707215,308810612,0.17162057757377625,-0.005496889818459749,0.0036241132766008377,-0.9851412177085876,0.09578513354063034,-0.07621970772743225,9.746255874633789,0.7842544913291931,-0.007696616929024458,0.12700696289539337
1781546628708933,308827279,0.17162469029426575,-0.005487469024956226,0.003629344282671809,-0.9851405620574951,0.09139344096183777,-0.08421970158815384,9.756036758422852,0.6726983189582825,0.10115094482898712,0.12381818890571594
1781546628737503,308843946,0.17163170874118805,-0.005487089045345783,0.0036316595505923033,-0.9851392507553101,0.09070678055286407,-0.08686966449022293,9.746417045593262,0.6818932890892029,0.03631240501999855,0.14953333139419556
1781546628738122,308860613,0.17164278030395508,-0.005499401595443487,0.0036343978717923164,-0.9851372241973877,0.08334724605083466,-0.090399369597435,9.742613792419434,0.6641821265220642,-0.049189187586307526,0.17117607593536377
1781546628766708,308877280,0.17164857685565948,-0.005486047361046076,0.003633966203778982,-0.9851362705230713,0.08749191462993622,-0.08854331821203232,9.72854995727539,0.7158429026603699,0.12107763439416885,0.13606105744838715
1781546628796908,308893947,0.1716407686471939,-0.005485566332936287,0.003628788748756051,-0.9851377606391907,0.08899387717247009,-0.09046731889247894,9.732123374938965,0.7323118448257446,0.028705434873700142,0.041844747960567474
1781546628798299,308910614,0.17163732647895813,-0.005487448535859585,0.003628222970291972,-0.9851383566856384,0.09158309549093246,-0.10155355930328369,9.739524841308594,0.6983494758605957,0.017999324947595596,0.0725671797990799
1781546628826464,308927281,0.1716352105140686,-0.005489354953169823,0.003629857674241066,-0.9851387143135071,0.09800595790147781,-0.09618566930294037,9.761307716369629,0.683506965637207,0.020394114777445793,0.08210791647434235
1781546628828311,308943948,0.17163173854351044,-0.005489945411682129,0.0036334479227662086,-0.9851393103599548,0.09299576282501221,-0.0845164954662323,9.743228912353516,0.67176353931427,0.03165089339017868,0.07046693563461304
1781546628856791,308960615,0.17161774635314941,-0.005491180811077356,0.003627242287620902,-0.9851417541503906,0.08771006762981415,-0.08841457962989807,9.744461059570312,0.7369478344917297,0.016129598021507263,-0.004354158882051706
1781546628858272,308977282,0.1716081202030182,-0.005491945426911116,0.0036465581506490707,-0.9851433634757996,0.09100374579429626,-0.08532115072011948,9.745804786682129,0.5648304224014282,0.049259621649980545,0.029870808124542236
1781546628886499,308993949,0.17161057889461517,-0.005495171993970871,0.0036434053909033537,-0.9851429462432861,0.09230906516313553,-0.09049592912197113,9.753418922424316,0.7145366668701172,0.005718034692108631,0.10861705243587494
1781546628888248,309010616,0.17162242531776428,-0.005486999172717333,0.0036374416667968035,-0.9851408004760742,0.0936000719666481,-0.0858897715806961,9.730384826660156,0.7472056150436401,0.07932893186807632,0.17624737322330475
1781546628916698,309027283,0.1716218739748001,-0.005491745192557573,0.0036564525216817856,-0.9851408004760742,0.08179871737957001,-0.08532113581895828,9.733805656433105,0.5625381469726562,0.02167474664747715,0.08520704507827759
1781546628946695,309043950,0.17161530256271362,-0.005484129302203655,0.0036533442325890064,-0.9851421117782593,0.0910395085811615,-0.09216601401567459,9.75745964050293,0.7266642451286316,0.07949541509151459,0.04613487794995308
1781546628948555,309060617,0.17161597311496735,-0.0054929303005337715,0.0036578327417373657,-0.9851418137550354,0.09882133454084396,-0.0808902308344841,9.763564109802246,0.6561141014099121,-0.022987397387623787,0.09707852452993393
1781546628977174,309077284,0.17161838710308075,-0.0054837483912706375,0.0036526676267385483,-0.9851415753364563,0.10339899361133575,-0.09182624518871307,9.727790832519531,0.7428643107414246,0.08734570443630219,0.1135731041431427
1781546628979695,309093951,0.17161905765533447,-0.005491350777447224,0.003658536821603775,-0.985141396522522,0.0857824832201004,-0.0821097195148468,9.733931541442871,0.6480461359024048,-0.013190539553761482,0.09879457950592041
1781546629006645,309110618,0.17162054777145386,-0.0054953433573246,0.0036565903574228287,-0.9851411581039429,0.083550825715065,-0.0823993980884552,9.746524810791016,0.7054185271263123,0.001952968304976821,0.11060203611850739
1781546629008697,309127285,0.17161880433559418,-0.005503558088093996,0.0036581982858479023,-0.9851413369178772,0.09702250361442566,-0.09802741557359695,9.746724128723145,0.6762200593948364,-0.022321466356515884,0.08493810892105103
1781546629037156,309143952,0.17162157595157623,-0.00550144724547863,0.003655022941529751,-0.985140860080719,0.09454765915870667,-0.07981380820274353,9.738152503967285,0.7209526896476746,0.041806332767009735,0.11656980216503143
1781546629039079,309160619,0.1716199815273285,-0.005514560267329216,0.003662152448669076,-0.9851410388946533,0.0828249603509903,-0.07725680619478226,9.750232696533203,0.6330882906913757,-0.04900990054011345,0.08661574125289917
1781546629066634,309177286,0.17162694036960602,-0.00550773786380887,0.0036629806272685528,-0.9851399064064026,0.09051724523305893,-0.07748570293188095,9.742440223693848,0.6995019912719727,0.07839406281709671,0.14378328621387482
1781546629096400,309193953,0.17160700261592865,-0.005613455083221197,0.003593320958316326,-0.9851430654525757,0.09523797780275345,-0.08557149022817612,9.741138458251953,0.6081926822662354,0.05123179778456688,0.06378202140331268
1781546629098259,309210620,0.17160458862781525,-0.005608891602605581,0.00359913008287549,-0.9851434230804443,0.09910742938518524,-0.08715216815471649,9.739314079284668,0.6623250842094421,0.07004432380199432,0.08326048403978348
1781546629126411,309227287,0.17161253094673157,-0.00561381783336401,0.003594448324292898,-0.9851419925689697,0.09297066181898117,-0.09434034675359726,9.741066932678223,0.722463846206665,-0.00686420314013958,0.1465238630771637
1781546629128348,309243954,0.1716180294752121,-0.005607759114354849,0.0036037592217326164,-0.9851410984992981,0.10143911838531494,-0.08663719892501831,9.740615844726562,0.6407209038734436,0.08400324732065201,0.14138849079608917
1781546629157578,309260621,0.1716233342885971,-0.005612184759229422,0.0036078577395528555,-0.9851401448249817,0.09062836319208145,-0.09765548259019852,9.74179458618164,0.6634649634361267,0.006921831984072924,0.13107939064502716
1781546629158837,309277288,0.171626478433609,-0.005616634152829647,0.003612741595134139,-0.9851395487785339,0.09882143884897232,-0.08328985422849655,9.748775482177734,0.6581246852874756,0.00776705052703619,0.11688995361328125
1781546629186550,309293955,0.17164477705955505,-0.005620902869850397,0.003606750164180994,-0.9851363897323608,0.09876053780317307,-0.1046183705329895,9.734100341796875,0.7324656248092651,-0.004290127195417881,0.2189437747001648
1781546629189168,309310622,0.1716502159833908,-0.005625008139759302,0.003599878866225481,-0.9851354360580444,0.09569917619228363,-0.0976090058684349,9.748466491699219,0.7382028102874756,-0.003905936609953642,0.1369318962097168
1781546629216687,309327289,0.17166410386562347,-0.005625151563435793,0.0036055464297533035,-0.9851329922676086,0.09532380849123001,-0.09577440470457077,9.751201629638672,0.6582399606704712,0.03750339522957802,0.19173026084899902
1781546629246468,309343956,0.17166045308113098,-0.0056207566522061825,0.0036041976418346167,-0.9851335287094116,0.0875241607427597,-0.08267474174499512,9.756549835205078,0.7105154395103455,0.06050359830260277,0.06964733451604843
1781546629248134,309360623,0.1716567724943161,-0.005625467281788588,0.003605028847232461,-0.9851343035697937,0.10439664125442505,-0.08952677249908447,9.743372917175293,0.685005247592926,0.0014151015784591436,0.06948084384202957
1781546629276489,309377290,0.17165541648864746,-0.005616137757897377,0.0035952681209892035,-0.9851345419883728,0.0911003053188324,-0.0791843831539154,9.748383522033691,0.7734202742576599,0.08393921703100204,0.08340134471654892
1781546629278537,309393957,0.17165468633174896,-0.005612895358353853,0.003590978914871812,-0.9851346611976624,0.08962700515985489,-0.08900820463895798,9.733755111694336,0.7292512059211731,0.04909313842654228,0.09499109536409378
1781546629306472,309410624,0.17165595293045044,-0.005623477511107922,0.0035949277225881815,-0.9851343631744385,0.08695181459188461,-0.0957779809832573,9.760697364807129,0.6570233106613159,-0.034807659685611725,0.1010228842496872
1781546629308483,309427291,0.17165759205818176,-0.005633012391626835,0.0035945666022598743,-0.9851340651512146,0.08261754363775253,-0.09802383929491043,9.732833862304688,0.6876177787780762,-0.03288670629262924,0.10891161113977432
1781546629336586,309443958,0.17166292667388916,-0.00562251778319478,0.0035884049721062183,-0.985133171081543,0.10808371007442474,-0.0918477326631546,9.742178916931152,0.7506505846977234,0.09586193412542343,0.13330769538879395
1781546629338069,309460625,0.17165732383728027,-0.005632401444017887,0.003580440068617463,-0.9851341247558594,0.10724693536758423,-0.08548206835985184,9.760995864868164,0.7383308410644531,-0.04390016943216324,0.04929804056882858
1781546629366723,309477292,0.17166456580162048,-0.005636869929730892,0.003576383227482438,-0.9851329922676086,0.11557228863239288,-0.09328536689281464,9.717406272888184,0.7188780307769775,-0.0031119429040700197,0.1496742069721222
1781546629396476,309493959,0.1716803014278412,-0.005646268371492624,0.003566910047084093,-0.9851300716400146,0.09112197160720825,-0.11211410164833069,9.738908767700195,0.749978244304657,-0.04309336841106415,0.20326238870620728
1781546629397989,309510626,0.17167235910892487,-0.005639390088617802,0.0035838100593537092,-0.9851314425468445,0.09158309549093246,-0.10584142804145813,9.736671447753906,0.5897259712219238,0.09893544763326645,0.04764602333307266
1781546629426593,309527293,0.17167158424854279,-0.005638647824525833,0.0035899700596928596,-0.9851316809654236,0.09594614058732986,-0.07678115367889404,9.74296760559082,0.655422568321228,0.04457249864935875,0.08703835308551788
1781546629429053,309543960,0.1716596484184265,-0.00564957782626152,0.0035851439461112022,-0.9851335883140564,0.07963141053915024,-0.08721654117107391,9.741073608398438,0.7157660722732544,-0.04721700772643089,0.02132897637784481
1781546629457057,309560627,0.1716669350862503,-0.005646132864058018,0.003575442126020789,-0.9851323962211609,0.09685084223747253,-0.08262469619512558,9.73974323272705,0.7663767337799072,0.043893758207559586,0.14343750476837158
1781546629459187,309577294,0.17167067527770996,-0.005644569639116526,0.00357714481651783,-0.9851317405700684,0.09848517179489136,-0.08465955406427383,9.73608112335205,0.6867852210998535,0.04467494785785675,0.12339556962251663
1781546629486935,309593961,0.17166246473789215,-0.005644320975989103,0.0035744851920753717,-0.985133171081543,0.08636187762022018,-0.08665864169597626,9.765694618225098,0.7144982814788818,0.030984964221715927,0.04292047768831253
1781546629487934,309610628,0.1716601550579071,-0.00563660217449069,0.00357573083601892,-0.9851336479187012,0.0834401473402977,-0.09090359508991241,9.732514381408691,0.6969407200813293,0.08597543090581894,0.08392640948295593
1781546629516693,309627295,0.1716611087322235,-0.0056216600351035595,0.0035706583876162767,-0.9851335287094116,0.09080337733030319,-0.095688596367836,9.74169635772705,0.7484735250473022,0.12737834453582764,0.10303349047899246
1781546629546947,309643962,0.17166446149349213,-0.005629989318549633,0.003559194039553404,-0.9851331114768982,0.092548668384552,-0.09946504980325699,9.74673080444336,0.7645134925842285,-0.03793241083621979,0.12340197712182999
1781546629548352,309660629,0.17165258526802063,-0.00563005032017827,0.003551431931555271,-0.9851350784301758,0.09578154236078262,-0.09031712263822556,9.767562866210938,0.7485631704330444,0.022955380380153656,0.014183031395077705
1781546629576747,309677296,0.17165280878543854,-0.0056274933740496635,0.0035377084277570248,-0.9851351380348206,0.09444048255681992,-0.09124335646629333,9.734618186950684,0.7923225164413452,0.033328521996736526,0.09485022723674774
1781546629578364,309693963,0.17166084051132202,-0.005624399520456791,0.003541076323017478,-0.9851337671279907,0.08431266248226166,-0.08639401942491531,9.731128692626953,0.6775135397911072,0.05684098228812218,0.15361855924129486
1781546629606465,309710630,0.17166438698768616,-0.005629310384392738,0.0035454954486340284,-0.9851331114768982,0.09303134679794312,-0.07128812372684479,9.7463960647583,0.6607627868652344,0.003976371604949236,0.12604649364948273
1781546629610745,309727297,0.17166097462177277,-0.005638634320348501,0.003555410308763385,-0.9851335883140564,0.09708687663078308,-0.08822503685951233,9.738616943359375,0.6179896593093872,-0.019119881093502045,0.07045413553714752
1781546629636930,309743964,0.1716666966676712,-0.0056363255716860294,0.0035590084735304117,-0.9851325750350952,0.10271595418453217,-0.08861839771270752,9.733909606933594,0.6749457716941833,0.051891326904296875,0.13455630838871002
1781546629638498,309760631,0.17166751623153687,-0.005631391890347004,0.003555337665602565,-0.9851324558258057,0.08999168127775192,-0.08952319622039795,9.734701156616211,0.727035641670227,0.06127198040485382,0.10118936747312546
1781546629667272,309777298,0.17166559398174286,-0.005646496545523405,0.0035543525591492653,-0.9851327538490295,0.09106811881065369,-0.08702342957258224,9.757946014404297,0.6851973533630371,-0.07124172896146774,0.08221036195755005
1781546629696700,309793965,0.17166456580162048,-0.005644193850457668,0.003552928799763322,-0.9851329326629639,0.08442710340023041,-0.08417676389217377,9.745765686035156,0.7087226510047913,0.04614768177270889,0.08840862661600113
1781546629698816,309810632,0.17166714370250702,-0.005645824130624533,0.0035656800027936697,-0.9851323962211609,0.09016671776771545,-0.07581918686628342,9.750011444091797,0.6081671118736267,0.03609469532966614,0.11700521409511566
1781546629726664,309827299,0.17168179154396057,-0.005633961409330368,0.0035727065987885,-0.9851298928260803,0.07835129648447037,-0.0767417922616005,9.74622917175293,0.6632344722747803,0.1204117015004158,0.19301089644432068
1781546629728339,309843966,0.1716810017824173,-0.005637405440211296,0.00357366306707263,-0.9851300120353699,0.08889029920101166,-0.07913788408041,9.738011360168457,0.6858760118484497,0.009982549585402012,0.09376168996095657
1781546629756665,309860633,0.1716727316379547,-0.005636241286993027,0.0035805709194391966,-0.9851314425468445,0.08663719892501831,-0.09496618807315826,9.734196662902832,0.65062016248703,0.048542462289333344,0.029281718656420708
1781546629760521,309877300,0.1716698259115219,-0.0056374529376626015,0.0035699543077498674,-0.9851320385932922,0.10296973586082458,-0.08143739402294159,9.74770736694336,0.7667737603187561,0.011544923298060894,0.07316906750202179
1781546629786913,309893967,0.1716637909412384,-0.005633288063108921,0.0035700888838618994,-0.9851331114768982,0.10456472635269165,-0.08975207805633545,9.756526947021484,0.7001422643661499,0.06074691563844681,0.053613774478435516
1781546629789354,309910634,0.17167437076568604,-0.005629063583910465,0.00358350807800889,-0.9851312637329102,0.0818665400147438,-0.08964121341705322,9.75483512878418,0.6107539534568787,0.07633224874734879,0.17012594640254974
1781546629816759,309927301,0.17168544232845306,-0.005635091569274664,0.0035919358488172293,-0.9851292967796326,0.08279635012149811,-0.08238508552312851,9.741631507873535,0.6325504183769226,0.0009156540036201477,0.17554301023483276
1781546629846413,309943968,0.17169496417045593,-0.005629687570035458,0.0035900319926440716,-0.9851275086402893,0.08610076457262039,-0.09484817087650299,9.753222465515137,0.7159453630447388,0.06621522456407547,0.16432465612888336
1781546629848433,309960635,0.17169223725795746,-0.005636132787913084,0.0035980131942778826,-0.9851280450820923,0.08925855904817581,-0.08623308688402176,9.748408317565918,0.6345866918563843,-0.001997790765017271,0.08018697053194046
1781546629876533,309977302,0.1717023402452469,-0.005644293501973152,0.0036031524650752544,-0.985126256942749,0.08616513758897781,-0.09075699001550674,9.759705543518066,0.6522721648216248,-0.017365409061312675,0.16782081127166748
1781546629878524,309993969,0.17170655727386475,-0.005652105435729027,0.003599716117605567,-0.9851254224777222,0.10202932357788086,-0.08427689969539642,9.733061790466309,0.7106435894966125,-0.02501079998910427,0.13334612548351288
1781546629906483,310010636,0.17171210050582886,-0.0056596240028738976,0.0036028889007866383,-0.9851243495941162,0.08089380711317062,-0.08809629082679749,9.750443458557129,0.6661927700042725,-0.015226751565933228,0.13793079555034637
1781546629909619,310027303,0.17171739041805267,-0.0056532202288508415,0.0036057461984455585,-0.9851234555244446,0.09247356653213501,-0.07836185395717621,9.747443199157715,0.6848644614219666,0.07866300642490387,0.14054329693317413
1781546629936964,310043970,0.17171745002269745,-0.005638376343995333,0.0036064931191504,-0.9851235151290894,0.10041990131139755,-0.08737032115459442,9.73973274230957,0.7088378667831421,0.13358944654464722,0.09568264335393906
1781546629938681,310060637,0.17172040045261383,-0.005641477182507515,0.0036081767175346613,-0.9851229786872864,0.09715829789638519,-0.0848991647362709,9.732949256896973,0.68143230676651,0.01303046103566885,0.11653139442205429
1781546629966690,310077304,0.17171993851661682,-0.005637331400066614,0.0035963377449661493,-0.9851232171058655,0.08923710137605667,-0.0748714730143547,9.75536060333252,0.7813602089881897,0.04626293480396271,0.09574666619300842
1781546629996991,310093971,0.1717214435338974,-0.005641686264425516,0.0035995517391711473,-0.9851229190826416,0.09358576685190201,-0.08570380508899689,9.745640754699707,0.6695608496665955,0.006383965723216534,0.10714433342218399
1781546629998871,310110638,0.17171938717365265,-0.005638192407786846,0.003590203821659088,-0.985123336315155,0.09915042668581009,-0.09373237192630768,9.757622718811035,0.7637130618095398,0.04486704245209694,0.07861178368330002
1781546630026897,310127305,0.17171724140644073,-0.005639523733407259,0.0035851229913532734,-0.9851236939430237,0.09405425190925598,-0.0834507942199707,9.7365140914917,0.7290590405464172,0.017243750393390656,0.07894474267959595
1781546630029660,310143972,0.1717125028371811,-0.00564618082717061,0.003586364910006523,-0.9851244688034058,0.08972704410552979,-0.07010796666145325,9.727405548095703,0.6799851655960083,-0.011346425861120224,0.07064622640609741
1781546630057088,310160639,0.1717030256986618,-0.005642083007842302,0.0035893814638257027,-0.9851260781288147,0.09307437390089035,-0.10150349140167236,9.738802909851074,0.6804973483085632,0.0636923760175705,0.03290591388940811
1781546630058023,310177306,0.17170944809913635,-0.005643030162900686,0.0035934417974203825,-0.985124945640564,0.0826425775885582,-0.08161620050668716,9.735187530517578,0.6679215431213379,0.030331837013363838,0.14266912639141083
1781546630086738,310193973,0.17171470820903778,-0.005653400905430317,0.003583551850169897,-0.9851239919662476,0.09011685103178024,-0.091679647564888,9.743791580200195,0.7513932585716248,-0.05000879243016243,0.13677819073200226
1781546630117104,310210640,0.17171072959899902,-0.00564912473782897,0.003577103838324547,-0.9851247072219849,0.10302695631980896,-0.09519863873720169,9.740280151367188,0.7450029850006104,0.053588174283504486,0.069916270673275
1781546630117974,310227307,0.17171943187713623,-0.005648805294185877,0.003569996915757656,-0.9851232171058655,0.09205157309770584,-0.08828224986791611,9.744789123535156,0.7450798153877258,0.025657521560788155,0.1553986519575119
1781546630147470,310243974,0.17173384130001068,-0.005647069774568081,0.003568054176867008,-0.9851208329200745,0.10190063714981079,-0.09382893145084381,9.738225936889648,0.7119242548942566,0.04117881879210472,0.19616127014160156
1781546630148516,310260641,0.17173625528812408,-0.005643016193062067,0.003565005725249648,-0.9851203560829163,0.09692594408988953,-0.09368232637643814,9.756197929382324,0.7218363285064697,0.05591892823576927,0.11407255381345749
1781546630176540,310277308,0.17173896729946136,-0.005634884350001812,0.003568442305549979,-0.9851199388504028,0.08176998049020767,-0.07861218601465225,9.751620292663574,0.6827129125595093,0.09120041131973267,0.11476409435272217
1781546630179818,310293975,0.17174449563026428,-0.0056345779448747635,0.003572530811652541,-0.9851189255714417,0.0909930169582367,-0.07142401486635208,9.733792304992676,0.6692022085189819,0.03884805738925934,0.13823813199996948
1781546630206504,310310642,0.1717437207698822,-0.005637230351567268,0.0035697391722351313,-0.985119104385376,0.10313782095909119,-0.09980121999979019,9.72952938079834,0.712013840675354,0.010917413979768753,0.09202003479003906
1781546630208391,310327309,0.1717386245727539,-0.005645149387419224,0.003575411159545183,-0.9851198792457581,0.09737297147512436,-0.0931280106306076,9.71245002746582,0.6484238505363464,-0.014650464057922363,0.06394210457801819
1781546630236634,310343976,0.17172931134700775,-0.005650926847010851,0.0035810580011457205,-0.9851216077804565,0.10255489498376846,-0.09755536168813705,9.7407808303833,0.6509018540382385,1.9209523088647984e-05,0.024991590529680252
1781546630238630,310360643,0.1717267781496048,-0.005654436070472002,0.003594492794945836,-0.9851218461990356,0.10013368725776672,-0.08755271881818771,9.727656364440918,0.601008415222168,0.0243768859654665,0.0711456760764122
1781546630266751,310377310,0.17173455655574799,-0.005653344560414553,0.003594248555600643,-0.9851205348968506,0.09660036116838455,-0.07274364680051804,9.760278701782227,0.6995788216590881,0.038988932967185974,0.1540667861700058
1781546630296599,310393977,0.171733096241951,-0.005661600735038519,0.0036009266041219234,-0.9851207137107849,0.08935869485139847,-0.08355450630187988,9.727995872497559,0.6413868069648743,-0.015854259952902794,0.08682063966989517
1781546630298656,310410644,0.1717287003993988,-0.005664477590471506,0.003605649806559086,-0.985121488571167,0.08257820457220078,-0.07977087795734406,9.744030952453613,0.6608269214630127,0.018357902765274048,0.06506266444921494
1781546630326512,310427311,0.17173536121845245,-0.005656536668539047,0.003603999735787511,-0.985120415687561,0.10179329663515091,-0.08598987758159637,9.746343612670898,0.7171235084533691,0.08379834145307541,0.13698309659957886
1781546630357362,310443978,0.17173130810260773,-0.005658282898366451,0.0036020956467837095,-0.9851210117340088,0.08833231776952744,-0.08605069667100906,9.735466003417969,0.7070833444595337,0.018088966608047485,0.07722868770360947
1781546630358641,310460645,0.1717282086610794,-0.0056462036445736885,0.003602229291573167,-0.9851216077804565,0.09276673942804337,-0.09756968170404434,9.735166549682617,0.7095422148704529,0.11423903703689575,0.07597366720438004
1781546630361022,310477312,0.17172300815582275,-0.005644197575747967,0.0035967498552054167,-0.985122561454773,0.1022258847951889,-0.09102877974510193,9.727548599243164,0.7355647683143616,0.03943715989589691,0.05639276280999184
1781546630386736,310493979,0.17172513902187347,-0.005644156131893396,0.0035969913005828857,-0.9851222038269043,0.08948385715484619,-0.08038956671953201,9.754295349121094,0.6949045062065125,0.032624173909425735,0.11048677563667297
1781546630417097,310510646,0.17173396050930023,-0.005643714219331741,0.0035948483273386955,-0.9851206541061401,0.09638594090938568,-0.08536764234304428,9.735723495483398,0.7116296291351318,0.032368045300245285,0.15269650518894196
1781546630418364,310527313,0.17173749208450317,-0.005632008425891399,0.0035892538726329803,-0.9851200580596924,0.07533995807170868,-0.08912266045808792,9.757584571838379,0.7482302188873291,0.10473673045635223,0.11947684735059738
1781546630447447,310543980,0.1717536300420761,-0.005622823256999254,0.0035787904635071754,-0.985117495059967,0.09329251945018768,-0.09202296286821365,9.750725746154785,0.7786197066307068,0.081544429063797,0.20448538661003113
1781546630448226,310560647,0.17174196243286133,-0.005631659179925919,0.0035766654182225466,-0.9851194620132446,0.08294299989938736,-0.10322363674640656,9.734939575195312,0.7000014781951904,-0.02992844209074974,0.02167474664747715
1781546630476563,310577314,0.17173679172992706,-0.005634081084281206,0.0035865181125700474,-0.9851202964782715,0.09078917652368546,-0.09079990535974503,9.728750228881836,0.6265955567359924,0.027463218197226524,0.06620243191719055
1781546630479512,310593981,0.1717292070388794,-0.005635022651404142,0.0035825285594910383,-0.9851216077804565,0.08535333722829819,-0.09001313894987106,9.720174789428711,0.7220668196678162,0.021252136677503586,0.045353684574365616
1781546630506554,310610648,0.1717330366373062,-0.0056433542631566525,0.0035905838012695312,-0.9851208329200745,0.07952391356229782,-0.09039221704006195,9.75790023803711,0.632076621055603,-0.014906590804457664,0.12073186784982681
1781546630509380,310627315,0.1717408150434494,-0.005642258562147617,0.003578138304874301,-0.9851195216178894,0.0880211889743805,-0.09102162718772888,9.757967948913574,0.7821733951568604,0.02461380325257778,0.14556975662708282
1781546630537273,310643982,0.17175251245498657,-0.005649859551340342,0.0035747173242270947,-0.9851174354553223,0.0921265035867691,-0.07541148364543915,9.758400917053223,0.7109125256538391,-0.023794198408722878,0.17687490582466125
1781546630566942,310660649,0.1717633157968521,-0.0056419046595692635,0.0035731084644794464,-0.9851157069206238,0.09485532343387604,-0.08312178403139114,9.726722717285156,0.7168289422988892,0.0838879942893982,0.16281349956989288
1781546630569425,310677316,0.1717616468667984,-0.005638365633785725,0.003567294217646122,-0.9851160049438477,0.08654770255088806,-0.08126574754714966,9.748366355895996,0.7396883368492126,0.049259621649980545,0.0868462547659874
1781546630597229,310693983,0.17176085710525513,-0.005637556780129671,0.0035730828531086445,-0.9851161241531372,0.08887224644422531,-0.09624290466308594,9.74461841583252,0.6581118702888489,0.0444188192486763,0.09573385864496231
1781546630598155,310710650,0.17176079750061035,-0.005639131646603346,0.0035577500239014626,-0.985116183757782,0.10435719788074493,-0.08714859932661057,9.736217498779297,0.7984309792518616,0.0033104412723332644,0.09830793738365173
1781546630626556,310727317,0.17176151275634766,-0.005640208721160889,0.003559734905138612,-0.9851160645484924,0.08819632977247238,-0.0942402258515358,9.736039161682129,0.6817524433135986,0.02709183469414711,0.10514652729034424
1781546630628342,310743984,0.17174994945526123,-0.005645512603223324,0.0035587737802416086,-0.98511803150177,0.07077313959598541,-0.08826794475317001,9.751577377319336,0.6961851716041565,-0.004533447790890932,0.010917413979768753
1781546630656541,310760651,0.1717473864555359,-0.005643876269459724,0.0035602031275629997,-0.9851185083389282,0.08459160476922989,-0.088250070810318,9.748812675476074,0.6885781288146973,0.044943880289793015,0.0827738344669342
1781546630658869,310777318,0.1717509627342224,-0.0056448280811309814,0.0035637973342090845,-0.9851179122924805,0.09860676527023315,-0.09504128247499466,9.737221717834473,0.6708670854568481,0.02984519489109516,0.11811935901641846
1781546630686743,310793985,0.17175158858299255,-0.005647317040711641,0.003555230563506484,-0.9851177930831909,0.07582264393568039,-0.08665508776903152,9.7531156539917,0.7515726089477539,0.005052104592323303,0.10309750586748123
1781546630717174,310810652,0.1717471480369568,-0.005654959473758936,0.0035530435852706432,-0.9851185083389282,0.09689733386039734,-0.09674356132745743,9.749981880187988,0.7021272778511047,-0.022167792543768883,0.0691094696521759
1781546630718885,310827319,0.17174655199050903,-0.005655933637171984,0.003548816777765751,-0.9851186275482178,0.08080806583166122,-0.08079366385936737,9.745431900024414,0.7238724827766418,0.02047094888985157,0.09349275380373001
1781546630746634,310843986,0.17174220085144043,-0.005665982142090797,0.003537568263709545,-0.9851194024085999,0.09399338811635971,-0.086680106818676,9.740337371826172,0.7605113983154297,-0.04909954220056534,0.06277032196521759
1781546630748268,310860653,0.1717447191476822,-0.005665903445333242,0.0035419135820120573,-0.9851189851760864,0.09056376665830612,-0.09527017921209335,9.755539894104004,0.6671403646469116,0.03764426335692406,0.11599349975585938
1781546630776551,310877320,0.17174401879310608,-0.0056620314717292786,0.0035463396925479174,-0.9851189851760864,0.08671945333480835,-0.08028227835893631,9.734822273254395,0.6709054112434387,0.06358993798494339,0.09071377664804459
1781546630778671,310893987,0.17174731194972992,-0.005665823817253113,0.0035412744618952274,-0.9851183891296387,0.09137924760580063,-0.08851470798254013,9.736056327819824,0.7263057827949524,0.0003265619743615389,0.1163392961025238
1781546630806976,310910654,0.17174485325813293,-0.005655516404658556,0.0035462237428873777,-0.9851188659667969,0.09373589605093002,-0.0913613885641098,9.721304893493652,0.6749778389930725,0.10779744386672974,0.07946979999542236
1781546630808939,310927321,0.1717245727777481,-0.00565432570874691,0.0035411780700087547,-0.9851223826408386,0.08945167064666748,-0.09259873628616333,9.735394477844238,0.7311912775039673,0.0347820445895195,-0.04058331996202469
1781546630836776,310943988,0.17171528935432434,-0.005664059892296791,0.0035356602165848017,-0.9851240515708923,0.09276681393384933,-0.08346152305603027,9.739109992980957,0.7219003438949585,-0.040071066468954086,0.031266700476408005
1781546630866529,310960655,0.17171192169189453,-0.005662119947373867,0.003525137435644865,-0.9851247072219849,0.10155006498098373,-0.07117366790771484,9.724801063537598,0.769808828830719,0.03285468742251396,0.07763848453760147
1781546630868491,310977322,0.17172099649906158,-0.005650884006172419,0.0035326213110238314,-0.9851231575012207,0.09572061896324158,-0.09824202209711075,9.745097160339355,0.6592773199081421,0.11672346293926239,0.16296719014644623
1781546630896389,310993989,0.1717146635055542,-0.005642129108309746,0.003531961003318429,-0.9851243495941162,0.07705291360616684,-0.09072839468717575,9.739715576171875,0.7108996510505676,0.09077781438827515,0.05591892451047897
1781546630898607,311010656,0.1717054396867752,-0.0056341360323131084,0.0035392651334404945,-0.9851260185241699,0.10591652989387512,-0.0698576346039772,9.753915786743164,0.6560372710227966,0.09508074074983597,0.03645327687263489
1781546630926934,311027323,0.17170350253582,-0.005625062622129917,0.0035404847003519535,-0.9851263165473938,0.10978607088327408,-0.0857967659831047,9.754290580749512,0.6988232731819153,0.09500390291213989,0.08707676827907562
1781546630928765,311043990,0.17170560359954834,-0.00562527310103178,0.0035397831816226244,-0.9851259589195251,0.08504209667444229,-0.0791092962026596,9.744293212890625,0.7010387778282166,0.02969151921570301,0.1158142238855362
1781546630957772,311060657,0.1717061847448349,-0.0056305998004972935,0.003536548698320985,-0.9851258397102356,0.08208110928535461,-0.0936143770813942,9.726837158203125,0.7120266556739807,-0.007837485522031784,0.09875614941120148
1781546630959074,311077324,0.1717139184474945,-0.005641857627779245,0.003526583779603243,-0.985124409198761,0.07892689853906631,-0.08091168850660324,9.750707626342773,0.7507529854774475,-0.05615584924817085,0.14745870232582092
1781546630986732,311093991,0.17171384394168854,-0.005636116024106741,0.0035294254776090384,-0.9851244688034058,0.08944085240364075,-0.09399347007274628,9.744665145874023,0.6837373971939087,0.07434725761413574,0.09438919275999069
1781546631017068,311110658,0.17172294855117798,-0.005634353496134281,0.003532535396516323,-0.9851228594779968,0.09728356450796127,-0.08296443521976471,9.748948097229004,0.6777439713478088,0.04736427962779999,0.16186586022377014
1781546631019202,311127325,0.17172813415527344,-0.0056341951712965965,0.0035313088446855545,-0.9851219654083252,0.09038493037223816,-0.09395413100719452,9.734343528747559,0.7050087451934814,0.031471602618694305,0.13935227692127228
1781546631046540,311143992,0.1717175394296646,-0.005636119749397039,0.0035284324549138546,-0.9851238131523132,0.08171633630990982,-0.10396749526262283,9.754034042358398,0.7132048010826111,0.01591188833117485,0.029307331889867783
1781546631049088,311160659,0.17170950770378113,-0.0056363679468631744,0.0035381114576011896,-0.9851251244544983,0.0918835699558258,-0.10245474427938461,9.753499984741211,0.6302580833435059,0.04201123118400574,0.04508475586771965
1781546631076762,311177326,0.171707421541214,-0.005639548879116774,0.0035461115185171366,-0.9851255416870117,0.09283476322889328,-0.10014811158180237,9.738906860351562,0.6381980180740356,0.020086759701371193,0.07733114063739777
1781546631078478,311193993,0.17168381810188293,-0.005604454316198826,0.0035581067204475403,-0.9851298332214355,0.09815248101949692,-0.08563228696584702,9.750847816467285,0.7419679164886475,-0.0018056952394545078,0.10400677472352982
1781546631106550,311210660,0.171675443649292,-0.005611374042928219,0.0035553723573684692,-0.9851312637329102,0.09382180124521255,-0.08176640421152115,9.719473838806152,0.7065710425376892,-0.018108177930116653,0.04137090966105461
1781546631109342,311227327,0.17167238891124725,-0.005620216019451618,0.0035441452637314796,-0.9851318001747131,0.09195144474506378,-0.08310390263795853,9.742829322814941,0.7620866298675537,-0.04130047559738159,0.07903438061475754
1781546631136930,311243994,0.1716795414686203,-0.005605749320238829,0.003542052349075675,-0.9851306080818176,0.09515214711427689,-0.09800953418016434,9.764211654663086,0.7279576659202576,0.1270453780889511,0.14900827407836914
1781546631166941,311260661,0.1716715693473816,-0.005601593758910894,0.0035374562721699476,-0.9851319789886475,0.09525582194328308,-0.09437969326972961,9.72892951965332,0.732196569442749,0.05472793057560921,0.03847667574882507
1781546631168893,311277328,0.17166811227798462,-0.005593886598944664,0.003537832060828805,-0.98513263463974,0.08068288117647171,-0.09375382959842682,9.7289457321167,0.7028444409370422,0.08445145934820175,0.07260560244321823
1781546631196951,311293995,0.1716679483652115,-0.0055911727249622345,0.0035412779543548822,-0.9851326942443848,0.09711191058158875,-0.10442882776260376,9.727784156799316,0.6763225793838501,0.05420287698507309,0.09208405762910843
1781546631198716,311310662,0.17167127132415771,-0.0055934470146894455,0.0035430346615612507,-0.985132098197937,0.0870019719004631,-0.09478022158145905,9.737125396728516,0.6820469498634338,0.018281063064932823,0.12174355983734131
1781546631226519,311327329,0.17167054116725922,-0.005591672845184803,0.0035462668165564537,-0.9851322174072266,0.10390312969684601,-0.0898200199007988,9.734074592590332,0.6766170859336853,0.047543566673994064,0.09663030505180359
1781546631228222,311343996,0.1716701090335846,-0.005600498989224434,0.0035490449517965317,-0.9851322770118713,0.10072745382785797,-0.09260231256484985,9.73803424835205,0.6672683954238892,-0.02481870725750923,0.09965261071920395
1781546631256506,311360663,0.1716655194759369,-0.005590913817286491,0.0035482493694871664,-0.985133171081543,0.08412670344114304,-0.08327198773622513,9.754205703735352,0.7130382657051086,0.0958234965801239,0.0686996579170227
1781546631258237,311377330,0.17167195677757263,-0.0055890511721372604,0.0035470423754304647,-0.9851320385932922,0.0824388712644577,-0.09196930378675461,9.76159954071045,0.7071345448493958,0.04263874143362045,0.14637015759944916
1781546631286886,311393997,0.17167538404464722,-0.005600969772785902,0.0035444858949631453,-0.9851313829421997,0.10812292993068695,-0.08362245559692383,9.737594604492188,0.6998606324195862,-0.052198681980371475,0.12760886549949646
1781546631317856,311410664,0.17166532576084137,-0.0056001353077590466,0.0035424726083874702,-0.985133171081543,0.08548562973737717,-0.07949551939964294,9.755189895629883,0.7107971906661987,0.03526228293776512,0.028372466564178467
1781546631318521,311427331,0.17167475819587708,-0.00559582794085145,0.003545666579157114,-0.9851314425468445,0.0758620873093605,-0.07257913053035736,9.734292984008789,0.6801644563674927,0.06438392400741577,0.1639789193868637
1781546631347510,311443998,0.17167170345783234,-0.0055924756452441216,0.0035485944245010614,-0.9851319789886475,0.08904033899307251,-0.09202297776937485,9.754749298095703,0.6804973483085632,0.057942330837249756,0.07324591279029846
1781546631349166,311460665,0.1716625690460205,-0.005577883683145046,0.0035537886433303356,-0.9851335883140564,0.0886756032705307,-0.1022723913192749,9.73239517211914,0.6781794428825378,0.13694468140602112,0.03349500522017479
1781546631376649,311477332,0.17166689038276672,-0.0055766478180885315,0.003561236895620823,-0.9851329326629639,0.09434034675359726,-0.09586023539304733,9.730252265930176,0.6476619243621826,0.04874736815690994,0.1251116245985031
1781546631378875,311493999,0.1716662049293518,-0.005570823326706886,0.0035556170623749495,-0.9851330518722534,0.09090360999107361,-0.0959317609667778,9.747700691223145,0.7414427995681763,0.06447356194257736,0.09712974727153778
1781546631406759,311510666,0.17166845500469208,-0.005574265960603952,0.0035610729828476906,-0.9851326942443848,0.07961710542440414,-0.08631891757249832,9.738731384277344,0.6555122137069702,0.014746510423719883,0.11348345875740051
1781546631408672,311527333,0.171666219830513,-0.005572343710809946,0.003551333677023649,-0.9851330518722534,0.09596037119626999,-0.09280615299940109,9.753705024719238,0.7646351456642151,0.033277302980422974,0.08227439969778061
1781546631436623,311544000,0.1716785579919815,-0.005568105727434158,0.0035546869039535522,-0.9851309061050415,0.09171183407306671,-0.09196217358112335,9.745383262634277,0.6792680025100708,0.06393569707870483,0.18961721658706665
1781546631466410,311560667,0.1716907024383545,-0.005570526700466871,0.0035558671224862337,-0.9851287603378296,0.09663627296686172,-0.08982359617948532,9.743630409240723,0.6860937476158142,0.016244854778051376,0.1870047152042389
1781546631468603,311577334,0.1716865748167038,-0.005567255429923534,0.0035567497834563255,-0.9851294755935669,0.08208110928535461,-0.08015710860490799,9.728492736816406,0.6942258477210999,0.055022481828927994,0.07123532146215439
1781546631496546,311594001,0.1716761589050293,-0.005574723705649376,0.0035647270269691944,-0.9851311445236206,0.08129791915416718,-0.08023221045732498,9.736681938171387,0.6332548260688782,-0.00922057218849659,0.028423696756362915
1781546631498643,311610668,0.17167235910892487,-0.0055863866582512856,0.0035673766396939754,-0.9851318597793579,0.08735959231853485,-0.08836450427770615,9.74875545501709,0.6647199988365173,-0.04409226030111313,0.07711343467235565
1781546631526537,311627335,0.1716669350862503,-0.005582218989729881,0.0035603337455540895,-0.9851328134536743,0.08561798185110092,-0.09323172271251678,9.732465744018555,0.7489473819732666,0.051718443632125854,0.06457602232694626
1781546631528999,311644002,0.17166079580783844,-0.005581400357186794,0.003564095590263605,-0.9851338863372803,0.08637256175279617,-0.08704846352338791,9.753232955932617,0.6719171404838562,0.041806332767009735,0.06398691982030869
1781546631556734,311660669,0.17166107892990112,-0.005589507054537535,0.0035771741531789303,-0.985133707523346,0.0881783738732338,-0.10176455974578857,9.737680435180664,0.5984727144241333,-0.007850292138755322,0.10637594014406204
1781546631559655,311677336,0.17165032029151917,-0.00559993227943778,0.003586010541766882,-0.985135555267334,0.07950624078512192,-0.08185223489999771,9.72624683380127,0.6239701509475708,-0.028135551139712334,0.022455932572484016
1781546631587299,311694003,0.1716516762971878,-0.00559957604855299,0.0035893635358661413,-0.9851353168487549,0.08674448728561401,-0.0763484463095665,9.744030952453613,0.6741966605186462,0.03797722980380058,0.11248457431793213
1781546631616536,311710670,0.1716451495885849,-0.0055926195345819,0.003581047523766756,-0.9851366281509399,0.10159289836883545,-0.09017764031887054,9.74338436126709,0.7608315944671631,0.06912226229906082,0.05695623531937599
1781546631618989,311727337,0.17164179682731628,-0.005598006770014763,0.0035783005878329277,-0.9851370453834534,0.1013568639755249,-0.09551692008972168,9.733957290649414,0.708594560623169,-0.007952743209898472,0.07291295379400253
1781546631646482,311744004,0.17164555191993713,-0.00558710191398859,0.0035793273709714413,-0.9851364493370056,0.09352128207683563,-0.09639311581850052,9.734443664550781,0.7025114893913269,0.10667048394680023,0.11758147925138474
1781546631648229,311760671,0.17164397239685059,-0.005578997079282999,0.003577733412384987,-0.9851368069648743,0.0918620377779007,-0.0960390493273735,9.742568969726562,0.7167778015136719,0.08474601060152054,0.0868462547659874
1781546631676530,311777338,0.1716575026512146,-0.005578803829848766,0.0035867937840521336,-0.9851343631744385,0.09799165278673172,-0.08813920617103577,9.7479829788208,0.6358416676521301,0.04320221766829491,0.19563619792461395
1781546631678897,311794005,0.17165431380271912,-0.005571246147155762,0.0035869686398655176,-0.9851349592208862,0.08733455836772919,-0.08596129715442657,9.733757019042969,0.704125165939331,0.08315803110599518,0.07938016206026077
1781546631706431,311810672,0.17164957523345947,-0.005579361226409674,0.0035796179436147213,-0.9851358532905579,0.10107441246509552,-0.09618208557367325,9.732585906982422,0.7366533279418945,-0.03186219930648804,0.0662536546587944
1781546631708201,311827339,0.17165426909923553,-0.005585489794611931,0.0035749482922255993,-0.9851349592208862,0.09554910659790039,-0.10528354346752167,9.747206687927246,0.7210806608200073,-0.015534100122749805,0.13454990088939667
1781546631736667,311844006,0.17165963351726532,-0.005578218027949333,0.003573392517864704,-0.9851340651512146,0.08708065003156662,-0.09951869398355484,9.749184608459473,0.7158557176589966,0.07894474267959595,0.13399922847747803
1781546631766424,311860673,0.17165440320968628,-0.005584726110100746,0.0035662322770804167,-0.9851349592208862,0.07888761907815933,-0.09997643530368805,9.749837875366211,0.737139880657196,-0.020720675587654114,0.061489686369895935
1781546631768598,311877340,0.17165236175060272,-0.005601273383945227,0.003557747695595026,-0.9851351976394653,0.09369663149118423,-0.09094652533531189,9.749631881713867,0.7343737483024597,-0.09033599495887756,0.08342696726322174
1781546631796664,311894007,0.17165251076221466,-0.005610101856291294,0.00355684757232666,-0.9851352572441101,0.0914507731795311,-0.10258350521326065,9.741456031799316,0.6922664046287537,-0.02921128273010254,0.0991915762424469
1781546631799075,311910674,0.17165227234363556,-0.005600593984127045,0.003556746756657958,-0.9851353168487549,0.09137924760580063,-0.09063539654016495,9.741649627685547,0.7084792852401733,0.09593875706195831,0.09565702080726624
1781546631826634,311927341,0.17165175080299377,-0.005602181889116764,0.0035567604936659336,-0.9851353764533997,0.10402105003595352,-0.08931220322847366,9.771239280700684,0.6945459246635437,0.020906366407871246,0.09549054503440857
1781546631828892,311944008,0.17165502905845642,-0.005602370481938124,0.003566343802958727,-0.9851347208023071,0.09283118695020676,-0.10025181621313095,9.733757019042969,0.6315131187438965,0.041498977690935135,0.12722468376159668
1781546631856628,311960675,0.17166030406951904,-0.005604482255876064,0.0035644129384309053,-0.9851338267326355,0.1006021574139595,-0.09461572021245956,9.73350715637207,0.7072498798370361,0.014912992715835571,0.13472919166088104
1781546631858589,311977342,0.1716555505990982,-0.005598064046353102,0.003561439225450158,-0.9851347208023071,0.08509227633476257,-0.09088930487632751,9.75778865814209,0.7240645289421082,0.07177318632602692,0.061425644904375076
1781546631887373,311994009,0.171640545129776,-0.005599569529294968,0.0035593302454799414,-0.9851373434066772,0.07841906696557999,-0.09584234654903412,9.747649192810059,0.7085049152374268,0.01942082867026329,-0.00685139698907733
1781546631917261,312010676,0.17163635790348053,-0.0055989669635891914,0.0035631039645522833,-0.9851381182670593,0.09118971228599548,-0.08027870208024979,9.734850883483887,0.6714945435523987,0.04033359885215759,0.06885333359241486
1781546631919024,312027343,0.17163170874118805,-0.005602642428129911,0.0035563588608056307,-0.9851389527320862,0.11241450160741806,-0.08357596397399902,9.73678970336914,0.7377545833587646,-0.0010885396040976048,0.06771356612443924
1781546631947255,312044010,0.17164041101932526,-0.005604456178843975,0.003546589519828558,-0.9851375222206116,0.10394246131181717,-0.09494830667972565,9.746191024780273,0.7609212398529053,0.007459698244929314,0.1684611290693283
1781546631950073,312060677,0.17163598537445068,-0.005610688589513302,0.003546249819919467,-0.9851381182670593,0.08968061953783035,-0.07795415818691254,9.750277519226074,0.6912546157836914,-0.01082136482000351,0.06894298642873764
1781546631977110,312077344,0.17163270711898804,-0.00561623414978385,0.0035482202656567097,-0.9851387143135071,0.08665157109498978,-0.0961749330163002,9.746966361999512,0.6765146255493164,-0.0034577143378555775,0.07120970636606216
1781546631978520,312094011,0.17164579033851624,-0.005629885010421276,0.0035374981816858053,-0.9851363897323608,0.09578155726194382,-0.07662739604711533,9.746319770812988,0.7535063624382019,-0.07391825318336487,0.19046244025230408
1781546632007030,312110678,0.1716385781764984,-0.005637477617710829,0.003532449947670102,-0.9851375818252563,0.09210874140262604,-0.08182362467050552,9.741596221923828,0.7216314077377319,-0.025523055344820023,0.0541132353246212
1781546632008343,312127345,0.17164495587348938,-0.005646060686558485,0.0035313977859914303,-0.9851363897323608,0.09163659811019897,-0.07809720933437347,9.751774787902832,0.693739116191864,-0.027930648997426033,0.1442699283361435
1781546632036819,312144012,0.17164619266986847,-0.005639558658003807,0.0035302522592246532,-0.9851362109184265,0.09791655838489532,-0.08992373198270798,9.744324684143066,0.7120010256767273,0.07432164996862411,0.10526178777217865
1781546632066578,312160679,0.17164719104766846,-0.0056380825117230415,0.0035300429444760084,-0.9851360321044922,0.09815248847007751,-0.09722993522882462,9.758783340454102,0.6996940970420837,0.04140933230519295,0.10165040194988251
1781546632069306,312177346,0.17165987193584442,-0.005635763984173536,0.0035253395326435566,-0.9851338267326355,0.10278359055519104,-0.08942665159702301,9.750129699707031,0.7316075563430786,0.041409336030483246,0.18933549523353577
1781546632096677,312194013,0.17164617776870728,-0.005625101737678051,0.003510079113766551,-0.9851364493370056,0.0769742876291275,-0.09497691690921783,9.757220268249512,0.8120570182800293,0.08630839735269547,-0.004136451054364443
1781546632099511,312210680,0.17163169384002686,-0.005616489797830582,0.003499662736430764,-0.9851391315460205,0.09416511654853821,-0.09049950540065765,9.7164306640625,0.7768522500991821,0.07809951901435852,-0.0005634793196804821
1781546632128006,312227347,0.1716531217098236,-0.005616435315459967,0.003504053456708789,-0.9851353168487549,0.09719796478748322,-0.09838143736124039,9.749490737915039,0.6676909923553467,0.0364660806953907,0.2477964609861374
1781546632129408,312244014,0.17165179550647736,-0.005610463675111532,0.0035039132926613092,-0.9851356148719788,0.0918620377779007,-0.08846821635961533,9.740325927734375,0.7045604586601257,0.0719652846455574,0.08442585170269012
1781546632156660,312260681,0.17165157198905945,-0.005602674093097448,0.0035026283003389835,-0.9851357340812683,0.09363225847482681,-0.0969831645488739,9.719476699829102,0.7144726514816284,0.08283787220716476,0.0996013805270195
1781546632158944,312277348,0.17164184153079987,-0.005608113016933203,0.003506170818582177,-0.9851372838020325,0.10362060368061066,-0.08427689969539642,9.735573768615723,0.6658341288566589,-0.0007043491932563484,0.02654115855693817
1781546632186901,312294015,0.17163127660751343,-0.0056096515618264675,0.0035064960829913616,-0.9851391315460205,0.10629560798406601,-0.07945617288351059,9.742074966430664,0.692253589630127,0.021930871531367302,0.027296733111143112
1781546632216517,312310682,0.17162883281707764,-0.005593383684754372,0.003508633002638817,-0.9851396679878235,0.09522002190351486,-0.094408318400383,9.72965145111084,0.7012821435928345,0.14444921910762787,0.08221036195755005
1781546632218631,312327349,0.17163382470607758,-0.005608212202787399,0.0035128500312566757,-0.9851387739181519,0.09191568195819855,-0.09181554615497589,9.742446899414062,0.6507226228713989,-0.06396771967411041,0.13302595913410187
1781546632246541,312344016,0.17163324356079102,-0.005605761893093586,0.003514125943183899,-0.9851387739181519,0.08614010363817215,-0.09015260636806488,9.726078987121582,0.6907681226730347,0.04973345994949341,0.09657908231019974
1781546632248842,312360683,0.1716202348470688,-0.005613220389932394,0.003512239782139659,-0.9851410388946533,0.08237793296575546,-0.09426882117986679,9.738899230957031,0.7001935243606567,-0.020733479410409927,0.009226974099874496
1781546632276604,312377350,0.1716224104166031,-0.005623531527817249,0.0035146779846400023,-0.9851406216621399,0.0960533544421196,-0.09163673222064972,9.730481147766113,0.6680368781089783,-0.03543517366051674,0.11553248763084412
1781546632278993,312394017,0.17162305116653442,-0.005623869132250547,0.0035181897692382336,-0.9851403832435608,0.09684726595878601,-0.07134891301393509,9.743827819824219,0.6724549531936646,0.033418167382478714,0.10720834881067276
1781546632306675,312410684,0.17161181569099426,-0.005617222748696804,0.0035105273127555847,-0.9851424098014832,0.07676330953836441,-0.08681599795818329,9.709404945373535,0.7560548186302185,0.06791847199201584,0.02086794562637806
1781546632308589,312427351,0.1716122180223465,-0.00561304809525609,0.0035064546391367912,-0.9851423501968384,0.10231171548366547,-0.0698111429810524,9.748847961425781,0.7291231155395508,0.05506090447306633,0.09969103336334229
1781546632336900,312444018,0.17161142826080322,-0.0056095244362950325,0.00350810494273901,-0.9851425290107727,0.09558121114969254,-0.1225852519273758,9.734068870544434,0.6895002722740173,0.0574813038110733,0.0903296023607254
1781546632366577,312460685,0.17161664366722107,-0.005604537203907967,0.0035152726341038942,-0.9851416945457458,0.10492592304944992,-0.10390312969684601,9.726980209350586,0.6541675925254822,0.07365571707487106,0.1369447112083435
1781546632368274,312477352,0.17161397635936737,-0.005611314903944731,0.0035124889109283686,-0.9851421117782593,0.0884682908654213,-0.08919059485197067,9.767765045166016,0.7072369456291199,-0.017480667680501938,0.07401429116725922
1781546632397030,312494019,0.17161442339420319,-0.005617071874439716,0.0035160097759217024,-0.9851419925689697,0.09135778993368149,-0.10247621685266495,9.704649925231934,0.6660774946212769,-0.0033040381968021393,0.10772060602903366
1781546632398808,312510686,0.1716129332780838,-0.005606221035122871,0.003521953709423542,-0.9851422905921936,0.08704488724470139,-0.11207118630409241,9.756155014038086,0.6690998077392578,0.11219002306461334,0.08586017042398453
1781546632426621,312527353,0.17162825167179108,-0.005590973421931267,0.0035195958334952593,-0.9851396679878235,0.09810609370470047,-0.07903775572776794,9.732344627380371,0.7311720848083496,0.1316172480583191,0.20367854833602905
1781546632428920,312544020,0.17162686586380005,-0.005595159716904163,0.0035174412187188864,-0.9851399064064026,0.10067738592624664,-0.06594883650541306,9.73690414428711,0.7061869502067566,0.0007363650947809219,0.08903614431619644
1781546632456646,312560687,0.17161720991134644,-0.005594961810857058,0.0035287654027342796,-0.9851415157318115,0.09384331852197647,-0.07073736190795898,9.752373695373535,0.6198080778121948,0.046557482331991196,0.03524947538971901
1781546632458968,312577354,0.17161421477794647,-0.005599545314908028,0.0035348779056221247,-0.9851420521736145,0.07653090357780457,-0.08671586215496063,9.727705001831055,0.6497237682342529,0.007869502529501915,0.0784965232014656
1781546632487175,312594021,0.17160877585411072,-0.005604894366115332,0.0035385906230658293,-0.9851430058479309,0.0804038718342781,-0.08730237185955048,9.748261451721191,0.6648607850074768,-5.1225397328380495e-05,0.050860416144132614
1781546632517056,312610688,0.17160286009311676,-0.0055992500856518745,0.0035431706346571445,-0.9851439595222473,0.0929134413599968,-0.10570553690195084,9.741653442382812,0.6719427108764648,0.07548702508211136,0.047761280089616776
1781546632519532,312627355,0.17159461975097656,-0.005609967280179262,0.0035542163532227278,-0.9851452708244324,0.09644673764705658,-0.12324683368206024,9.765928268432617,0.6088970899581909,-0.027725744992494583,0.03869438171386719
1781546632547034,312644022,0.1716027408838272,-0.005612086970359087,0.003557553980499506,-0.9851438403129578,0.1076653003692627,-0.0887686163187027,9.709867477416992,0.6717378497123718,0.02088075317442417,0.1551937460899353
1781546632549403,312660689,0.17161402106285095,-0.005610776599496603,0.003552147885784507,-0.9851418733596802,0.09005963057279587,-0.08931935578584671,9.765824317932129,0.7351420521736145,0.03375113755464554,0.17257197201251984
1781546632577292,312677356,0.1716260462999344,-0.005620525684207678,0.0035463753156363964,-0.9851398468017578,0.09790582954883575,-0.06606685370206833,9.716866493225098,0.7246536612510681,-0.041607826948165894,0.1777200996875763
1781546632579103,312694023,0.17162387073040009,-0.005610987078398466,0.0035513576585799456,-0.9851402640342712,0.08596844971179962,-0.05625016614794731,9.757220268249512,0.6741327047348022,0.10209861397743225,0.08648768067359924
1781546632607022,312710690,0.17163829505443573,-0.005613864865154028,0.003548955311998725,-0.9851377606391907,0.0816054716706276,-0.08716289699077606,9.747486114501953,0.709990382194519,0.008842783980071545,0.1939457654953003
1781546632608905,312727357,0.17163963615894318,-0.005615877453237772,0.0035483750980347395,-0.9851375222206116,0.09156868606805801,-0.11490354686975479,9.760771751403809,0.6982726454734802,0.017192523926496506,0.10718274116516113
1781546632636820,312744024,0.17164082825183868,-0.005611024331301451,0.003547640750184655,-0.9851372838020325,0.09384683519601822,-0.10802649706602097,9.751548767089844,0.7074419260025024,0.0634874776005745,0.10743886232376099
1781546632666995,312760691,0.17162322998046875,-0.005611698143184185,0.0035480759106576443,-0.985140323638916,0.08881870657205582,-0.08548566699028015,9.720056533813477,0.6923048496246338,0.028052307665348053,-0.023563683032989502
1781546632668435,312777358,0.17161720991134644,-0.005620600190013647,0.0035526759456843138,-0.9851413369178772,0.09809178858995438,-0.08048254251480103,9.745901107788086,0.6547566652297974,-0.023128265514969826,0.05599576607346535
1781546632698569,312794025,0.1716223955154419,-0.005628491286188364,0.003546032588928938,-0.9851403832435608,0.08272495865821838,-0.06345979869365692,9.718578338623047,0.7324655652046204,-0.029890019446611404,0.13352540135383606
1781546632699601,312810692,0.17161761224269867,-0.005628921091556549,0.0035466947592794895,-0.9851412177085876,0.06966451555490494,-0.0704047903418541,9.749677658081055,0.6915493011474609,0.029537847265601158,0.06630487740039825
1781546632726618,312827359,0.17162397503852844,-0.005618674214929342,0.0035416013561189175,-0.9851402044296265,0.09930054843425751,-0.09458710998296738,9.72540283203125,0.7433381676673889,0.09478618949651718,0.13770027458667755
1781546632728654,312844026,0.1716218739748001,-0.00563093414530158,0.0035353326238691807,-0.9851405620574951,0.11789315938949585,-0.09535598754882812,9.739118576049805,0.7246280908584595,-0.05888359621167183,0.08771709352731705
1781546632756580,312860693,0.1716323047876358,-0.005625864490866661,0.003522984916344285,-0.9851388335227966,0.09445121139287949,-0.1049080416560173,9.723228454589844,0.7865851521492004,0.05103970319032669,0.16317208111286163
1781546632758582,312877360,0.17163294553756714,-0.005626737605780363,0.0035299588926136494,-0.9851385951042175,0.08563586324453354,-0.0933247059583664,9.741527557373047,0.6484110951423645,0.033911217004060745,0.09849363565444946
1781546632787443,312894027,0.17163753509521484,-0.005625779740512371,0.003526229877024889,-0.9851377606391907,0.07965286821126938,-0.09555983543395996,9.710578918457031,0.7231553196907043,0.0335078127682209,0.12892790138721466
1781546632816582,312910694,0.17164276540279388,-0.0056251827627420425,0.0035236733965575695,-0.9851369857788086,0.08881153166294098,-0.07986386120319366,9.745969772338867,0.7149977087974548,0.03235524147748947,0.13799481093883514
1781546632818879,312927361,0.17164729535579681,-0.005610285326838493,0.0035213055089116096,-0.9851362705230713,0.10639587044715881,-0.09179762750864029,9.731595039367676,0.7304677963256836,0.1295042186975479,0.1278650164604187
1781546632846570,312944028,0.17163829505443573,-0.005607329308986664,0.0035288911312818527,-0.9851378202438354,0.10301980376243591,-0.08647626638412476,9.740540504455566,0.6484686732292175,0.06075972318649292,0.040743399411439896
1781546632849322,312960695,0.1716349571943283,-0.005606355611234903,0.003522272454574704,-0.9851384162902832,0.09976895898580551,-0.09342841804027557,9.743617057800293,0.7424288988113403,0.030459903180599213,0.07292576134204865
1781546632877181,312977362,0.17164337635040283,-0.005598416551947594,0.0035249022766947746,-0.9851369857788086,0.08725602179765701,-0.1051047071814537,9.739852905273438,0.6885653138160706,0.08816530555486679,0.15516811609268188
1781546632878816,312994029,0.17164281010627747,-0.005606099497526884,0.0035315891727805138,-0.9851370453834534,0.09383610635995865,-0.10007300972938538,9.766014099121094,0.6423664689064026,-0.012665478512644768,0.10233553498983383
1781546632906525,313010696,0.1716364175081253,-0.005607531871646643,0.003533035283908248,-0.9851381182670593,0.08694826811552048,-0.07797205448150635,9.750630378723145,0.6850436329841614,0.02372376248240471,0.0619635246694088
1781546632909615,313027363,0.17164024710655212,-0.005605646874755621,0.0035302331671118736,-0.9851374626159668,0.0942402109503746,-0.09108242392539978,9.752556800842285,0.7180840373039246,0.04083304852247238,0.13032381236553192
1781546632936825,313044030,0.17164288461208344,-0.005615822039544582,0.003527734661474824,-0.9851369857788086,0.09255939722061157,-0.09231621772050858,9.734088897705078,0.7016534209251404,-0.040365613996982574,0.11635208874940872
1781546632966945,313060697,0.17164142429828644,-0.005616903770714998,0.003533941227942705,-0.9851372241973877,0.0954633578658104,-0.09392549097537994,9.745800018310547,0.6533863544464111,0.03156124800443649,0.08998382091522217
1781546632968970,313077364,0.17163771390914917,-0.005633086431771517,0.0035317447036504745,-0.9851377606391907,0.0973980724811554,-0.08605069667100906,9.746161460876465,0.6923304796218872,-0.08056474477052689,0.06995469331741333
1781546632996515,313094031,0.17164041101932526,-0.005637075286358595,0.0035294024273753166,-0.9851372838020325,0.09104654937982559,-0.08249953389167786,9.743741989135742,0.708005428314209,0.0016456159064546227,0.11740220338106155
1781546632998716,313110698,0.17164640128612518,-0.005632453132420778,0.003530339803546667,-0.9851362109184265,0.09484472125768661,-0.09619279950857162,9.73414134979248,0.6959162950515747,0.06379483640193939,0.13470359146595
1781546633026718,313127365,0.17164026200771332,-0.005627742037177086,0.0035403124056756496,-0.9851372838020325,0.08588261902332306,-0.09410431981086731,9.740483283996582,0.634458601474762,0.07544860243797302,0.04836317524313927
1781546633028362,313144032,0.171646386384964,-0.005628607701510191,0.003545803250744939,-0.9851362109184265,0.09595666080713272,-0.07409187406301498,9.748856544494629,0.6587842106819153,0.03188781067728996,0.1487969607114792
1781546633056425,313160699,0.1716468781232834,-0.005631703417748213,0.0035432586446404457,-0.985136091709137,0.10474344342947006,-0.08401942253112793,9.76124382019043,0.7102593183517456,0.0075749559327960014,0.09362081438302994
1781546633058478,313177366,0.17164120078086853,-0.005644130986183882,0.0035397070460021496,-0.9851370453834534,0.10218648612499237,-0.07442086935043335,9.747264862060547,0.7059820294380188,-0.056744933128356934,0.06392289698123932
1781546633087079,313194033,0.171659454703331,-0.0056272586807608604,0.003556283190846443,-0.9851340055465698,0.09089645743370056,-0.09441902488470078,9.735841751098633,0.6829562187194824,0.011007057502865791,0.10600457340478897
1781546633117157,313210700,0.17165040969848633,-0.005619129166007042,0.003564134705811739,-0.9851356148719788,0.08580754697322845,-0.09758037328720093,9.752676963806152,0.6529253125190735,0.0960284098982811,0.031574055552482605
1781546633119602,313227367,0.1716596484184265,-0.005614805966615677,0.0035655784886330366,-0.9851338863372803,0.09160439670085907,-0.08888307958841324,9.748501777648926,0.692381739616394,0.06205316260457039,0.16565652191638947
1781546633146682,313244034,0.17166954278945923,-0.00561214704066515,0.0035706826020032167,-0.9851321578025818,0.09757667779922485,-0.09706544131040573,9.751209259033203,0.6656292080879211,0.05518896132707596,0.1604827642440796
1781546633149281,313260701,0.17167545855045319,-0.005609520711004734,0.003571819979697466,-0.9851310849189758,0.09457280486822128,-0.07153129577636719,9.743762969970703,0.6924713253974915,0.05032254755496979,0.13843023777008057
1781546633176697,313277368,0.17168894410133362,-0.005605433601886034,0.00356799247674644,-0.9851287603378296,0.09517718106508255,-0.07679189741611481,9.745657920837402,0.7279065251350403,0.054177261888980865,0.18472518026828766
1781546633178548,313294035,0.17168912291526794,-0.005596548318862915,0.003570474684238434,-0.9851288795471191,0.09261661767959595,-0.08921564370393753,9.740337371826172,0.6905375719070435,0.09446602314710617,0.10524898022413254
1781546633206661,313310702,0.17169176042079926,-0.005597378592938185,0.0035721738822758198,-0.9851284027099609,0.09513058513402939,-0.08445214480161667,9.746024131774902,0.6844289302825928,0.027655310928821564,0.11577580124139786
1781546633208991,313327369,0.17168845236301422,-0.0055996752344071865,0.003575799288228154,-0.9851289987564087,0.08757781237363815,-0.09534882754087448,9.754154205322266,0.6694455146789551,0.020112372934818268,0.08200546354055405
1781546633236660,313344036,0.17168669402599335,-0.005595118273049593,0.0035794114228338003,-0.9851292967796326,0.09365007281303406,-0.08223489671945572,9.73023509979248,0.6774750351905823,0.0666506439447403,0.07533334940671921
1781546633266430,313360703,0.1716783493757248,-0.00559203652665019,0.003572637215256691,-0.985130786895752,0.08662647008895874,-0.08418749272823334,9.741531372070312,0.7460659742355347,0.044457245618104935,0.04206245765089989
1781546633267913,313377370,0.17168042063713074,-0.00558963418006897,0.003576738527044654,-0.9851303696632385,0.10939975827932358,-0.07862649112939835,9.736270904541016,0.6719299554824829,0.05240998417139053,0.1116393506526947
1781546633296558,313394037,0.17168422043323517,-0.005595164839178324,0.0035664148163050413,-0.985129714012146,0.09106109291315079,-0.09199076890945435,9.742742538452148,0.760280966758728,-0.018402723595499992,0.1222430020570755
1781546633298602,313410704,0.17168867588043213,-0.0056009734980762005,0.0035666530020534992,-0.9851288795471191,0.09177251160144806,-0.08811775594949722,9.752693176269531,0.6884885430335999,-0.007837485522031784,0.1253933608531952
1781546633326699,313427371,0.17169328033924103,-0.005607872735708952,0.003560665063560009,-0.9851281046867371,0.08940517902374268,-0.09153660386800766,9.754652976989746,0.7293792366981506,-0.022590400651097298,0.13114342093467712
1781546633328786,313444038,0.1716921329498291,-0.005605036858469248,0.003566114231944084,-0.9851283431053162,0.0878388062119484,-0.09663627296686172,9.729751586914062,0.6632088422775269,0.057020269334316254,0.09213527292013168
1781546633356571,313460705,0.17167988419532776,-0.005605725105851889,0.0035692518576979637,-0.9851304888725281,0.10065235197544098,-0.09310298413038254,9.741277694702148,0.6743759512901306,0.030728833749890327,0.01682114042341709
1781546633358689,313477372,0.17167966067790985,-0.005604362580925226,0.003568990621715784,-0.9851305484771729,0.09412220120429993,-0.0892263725399971,9.736117362976074,0.70018070936203,0.040295179933309555,0.09652785956859589
1781546633386771,313494039,0.17168082296848297,-0.0055953124538064,0.003574142698198557,-0.9851303100585938,0.08587536960840225,-0.09068191051483154,9.75373363494873,0.6726598739624023,0.09871774911880493,0.10628629475831985
1781546633416577,313510706,0.17168384790420532,-0.005590097978711128,0.003567418549209833,-0.9851297736167908,0.10291609168052673,-0.08323264867067337,9.741856575012207,0.748537540435791,0.05864667147397995,0.11980980634689331
1781546633418755,313527373,0.17168281972408295,-0.00559236528351903,0.0035712202079594135,-0.9851299524307251,0.08795315027236938,-0.10208641737699509,9.761523246765137,0.6683570146560669,0.02047094888985157,0.09627173840999603
1781546633446594,313544040,0.17169012129306793,-0.00559316948056221,0.0035731627140194178,-0.9851287007331848,0.09933631122112274,-0.09444048255681992,9.752632141113281,0.6830074787139893,0.02793705090880394,0.15212023258209229
1781546633448685,313560707,0.17167533934116364,-0.005598034244030714,0.003576158545911312,-0.9851312637329102,0.10376723110675812,-0.07963498681783676,9.741081237792969,0.6702779531478882,0.002388383960351348,-0.004763961769640446
1781546633476604,313577374,0.1716623306274414,-0.005591514054685831,0.0035827301908284426,-0.9851335883140564,0.09204084426164627,-0.08851470798254013,9.745532989501953,0.659584641456604,0.08372151106595993,0.005077717360109091
1781546633478707,313594041,0.1716628521680832,-0.00559036061167717,0.0035765324719250202,-0.9851335287094116,0.09758765250444412,-0.09048875421285629,9.748868942260742,0.7401493787765503,0.03184298425912857,0.10198336094617844
1781546633506605,313610708,0.1716645509004593,-0.005596062634140253,0.003568046260625124,-0.985133171081543,0.10266933590173721,-0.09892147034406662,9.726794242858887,0.7475258708000183,-0.0172885712236166,0.10355854034423828
1781546633508510,313627375,0.1716618537902832,-0.005602136719971895,0.0035629402846097946,-0.9851335883140564,0.08743835240602493,-0.09238772839307785,9.717329978942871,0.7242439985275269,-0.015764616429805756,0.08195424824953079
1781546633536660,313644042,0.17166464030742645,-0.005607419181615114,0.0035592939238995314,-0.9851330518722534,0.09238404780626297,-0.08167700469493866,9.749357223510742,0.7154330015182495,-0.008810767903923988,0.11706924438476562
1781546633566474,313660709,0.17166782915592194,-0.005619783885776997,0.0035626254975795746,-0.9851325154304504,0.09516287595033646,-0.09336404502391815,9.747825622558594,0.659879207611084,-0.04857448488473892,0.1237797811627388
1781546633568388,313677376,0.17167221009731293,-0.005616084206849337,0.0035576638765633106,-0.9851317405700684,0.09411133825778961,-0.08685535937547684,9.734054565429688,0.7350268363952637,0.05038658156991005,0.1325393170118332
1781546633596454,313694043,0.17166739702224731,-0.005625052377581596,0.003548566484823823,-0.9851325154304504,0.09181912243366241,-0.08088307827711105,9.752767562866211,0.7476410865783691,-0.03994300588965416,0.06248858943581581
1781546633598371,313710710,0.1716662496328354,-0.00561769213527441,0.003545481478795409,-0.9851328134536743,0.09621070325374603,-0.08649414777755737,9.740182876586914,0.7263953685760498,0.07762569934129715,0.09177671372890472
1781546633626579,313727377,0.17165780067443848,-0.005626249127089977,0.00354421092197299,-0.9851342439651489,0.09021340310573578,-0.09724422544240952,9.755703926086426,0.6950710415840149,-0.02786661498248577,0.04204964637756348
1781546633628612,313744044,0.17165468633174896,-0.005621733143925667,0.003544389270246029,-0.9851347804069519,0.11160627752542496,-0.07678474485874176,9.739235877990723,0.7009747624397278,0.06221964955329895,0.07996925711631775
1781546633656572,313760711,0.17166146636009216,-0.005613286513835192,0.003551970701664686,-0.9851336479187012,0.08797827363014221,-0.0921517089009285,9.738966941833496,0.6557363867759705,0.09732825309038162,0.14285482466220856
1781546633658649,313777378,0.171648770570755,-0.005614644382148981,0.0035566510632634163,-0.9851358532905579,0.0986139252781868,-0.10193619877099991,9.733637809753418,0.6631959676742554,0.028052307665348053,0.011621762067079544
1781546633686921,313794045,0.1716410517692566,-0.005598382093012333,0.0035600976552814245,-0.9851373434066772,0.09594248980283737,-0.07762157917022705,9.73979377746582,0.692445695400238,0.1458066999912262,0.044393207877874374
1781546633716580,313810712,0.171636700630188,-0.0056036412715911865,0.0035555046051740646,-0.9851379990577698,0.10623838752508163,-0.1006702333688736,9.74241828918457,0.7217209935188293,-0.009604762308299541,0.07370693981647491
1781546633718676,313827379,0.17162472009658813,-0.005604649893939495,0.0035582389682531357,-0.9851400852203369,0.10128534585237503,-0.08915127068758011,9.753050804138184,0.6766939759254456,0.02814195305109024,0.010430772788822651
1781546633746557,313844046,0.1716320663690567,-0.005609183572232723,0.0035590315237641335,-0.9851388335227966,0.0929347574710846,-0.09922187775373459,9.732498168945312,0.686452329158783,0.0013382635079324245,0.14918756484985352
1781546633748564,313860713,0.17162567377090454,-0.005612744018435478,0.0035714595578610897,-0.9851398468017578,0.08976279944181442,-0.09877484291791916,9.737887382507324,0.6082183122634888,0.022110160440206528,0.054369356483221054
1781546633776982,313877380,0.17162886261940002,-0.005608603358268738,0.0035717692226171494,-0.9851393103599548,0.10168599337339401,-0.09947218745946884,9.738240242004395,0.6997452974319458,0.05965837463736534,0.11864441633224487
1781546633780134,313894047,0.1716328114271164,-0.0056068431586027145,0.0035767126828432083,-0.9851385951042175,0.09386101365089417,-0.081240713596344,9.73587417602539,0.6656548380851746,0.04890104755759239,0.13451148569583893
1781546633806518,313910714,0.17163754999637604,-0.005616172682493925,0.0035772265400737524,-0.9851377010345459,0.10768686980009079,-0.0965111032128334,9.745338439941406,0.6826233267784119,-0.03143959119915962,0.13227038085460663
1781546633808364,313927381,0.17164036631584167,-0.005619729403406382,0.0035803234204649925,-0.9851372241973877,0.10142123699188232,-0.08057910203933716,9.768778800964355,0.6718018651008606,0.010789350606501102,0.12024521827697754
1781546633836772,313944048,0.17162886261940002,-0.005608807783573866,0.0035763662308454514,-0.9851392507553101,0.07949551194906235,-0.09020267426967621,9.717413902282715,0.7362561821937561,0.10097166150808334,0.02372376248240471
1781546633838388,313960715,0.17163430154323578,-0.005606281105428934,0.003580393735319376,-0.9851382970809937,0.1003662571310997,-0.08671945333480835,9.744935989379883,0.6728776097297668,0.053024690598249435,0.1392882615327835
1781546633867202,313977382,0.17162823677062988,-0.005614643916487694,0.003591116052120924,-0.9851392507553101,0.09926111996173859,-0.09491612017154694,9.733092308044434,0.6141861081123352,-0.012460578233003616,0.055624376982450485
1781546633896747,313994049,0.17162011563777924,-0.005610024556517601,0.0035799704492092133,-0.9851407408714294,0.08359026908874512,-0.07582274824380875,9.743470191955566,0.777633547782898,0.049669425934553146,0.04563542455434799
1781546633898298,314010716,0.17162784934043884,-0.005609785206615925,0.0035855595488101244,-0.9851393699645996,0.09035658836364746,-0.09418297559022903,9.743633270263672,0.6596614718437195,0.03928348049521446,0.15258125960826874
1781546633927117,314027383,0.17163223028182983,-0.005622168071568012,0.0035879691131412983,-0.9851385354995728,0.09370031952857971,-0.09356788545846939,9.749412536621094,0.6660134792327881,-0.04981670528650284,0.12616175413131714
1781546633929059,314044050,0.1716284155845642,-0.005622101482003927,0.0035978348460048437,-0.9851391315460205,0.09285992383956909,-0.08822501450777054,9.74654769897461,0.6300019025802612,0.04350957274436951,0.07279769331216812
1781546633956802,314060717,0.17162242531776428,-0.005614865571260452,0.003602847922593355,-0.9851403832435608,0.10706449300050735,-0.09697243571281433,9.733552932739258,0.6713151931762695,0.08641083538532257,0.059018056839704514
1781546633959430,314077384,0.1716250777244568,-0.005610669497400522,0.0036038830876350403,-0.985139787197113,0.11056560277938843,-0.09397915005683899,9.744664192199707,0.6949173212051392,0.060887787491083145,0.11729976534843445
1781546633987631,314094051,0.17162498831748962,-0.005612983833998442,0.003608642378821969,-0.985139787197113,0.08753839880228043,-0.07969577610492706,9.750690460205078,0.6619730591773987,0.021220121532678604,0.10091404616832733
1781546633988890,314110718,0.17163093388080597,-0.0056144967675209045,0.0036112861707806587,-0.9851387143135071,0.09419028460979462,-0.09306004643440247,9.735457420349121,0.6774367094039917,0.02392866276204586,0.14578108489513397
1781546634016919,314127385,0.17163537442684174,-0.0056063951924443245,0.003618307877331972,-0.985137939453125,0.1000765860080719,-0.08651918172836304,9.73536205291748,0.6589570641517639,0.09436357766389847,0.1263154149055481
1781546634046525,314144052,0.17163366079330444,-0.005607233382761478,0.0036082384176552296,-0.9851384162902832,0.09786300361156464,-0.08033948391675949,9.74067211151123,0.7640972137451172,0.013760420493781567,0.08863914757966995
1781546634048503,314160719,0.17163236439228058,-0.005614144261926413,0.0036015089135617018,-0.9851384162902832,0.09044577181339264,-0.07619109749794006,9.728203773498535,0.7343480587005615,-0.023435618728399277,0.09030397236347198
1781546634077238,314177386,0.17162145674228668,-0.005618741270154715,0.0035994898062199354,-0.9851404428482056,0.10851643234491348,-0.09371808916330338,9.751608848571777,0.7048550844192505,-0.0019209525780752301,0.022660836577415466
1781546634078034,314194053,0.17161890864372253,-0.005613810382783413,0.0036077164113521576,-0.9851409792900085,0.10089203715324402,-0.0978199765086174,9.761002540588379,0.6469319462776184,0.07448812574148178,0.08281225711107254
1781546634106632,314210720,0.17162272334098816,-0.00561126321554184,0.0036067187320441008,-0.9851402044296265,0.07007220387458801,-0.09058532863855362,9.749131202697754,0.7068144679069519,0.04724902659654617,0.12348522245883942
