host_t_us,sensor_t_us,qw,qx,qy,qz,ax,ay,az,gx,gy,gz
1781546625410826,305508867,0.6172498464584351,0.005050803069025278,0.0034992690198123455,-0.7867432236671448,-0.12581811845302582,-0.0055109355598688126,10.305234909057617,0.44350308179855347,0.18857991695404053,0.6558195352554321
1781546625412235,305525534,0.6172526478767395,0.005057517904788256,0.0035134844947606325,-0.7867408990859985,-0.13039208948612213,-0.025276632979512215,10.338129043579102,0.4118073880672455,0.2651490569114685,0.6588802337646484
1781546625441349,305542201,0.617253303527832,0.005046684294939041,0.003518779296427965,-0.7867404222488403,-0.1331922709941864,-0.005965113639831543,10.307869911193848,0.3857848346233368,0.13232159614562988,0.636008083820343
1781546625442514,305558868,0.6172471642494202,0.005052860826253891,0.0035173033829778433,-0.7867452502250671,-0.13795576989650726,-0.013282033614814281,10.324063301086426,0.49489492177963257,0.19559776782989502,0.5790326595306396
1781546625470254,305575535,0.6172485947608948,0.005051881540566683,0.0035153061617165804,-0.7867441773414612,-0.13050653040409088,-0.017498381435871124,10.282032012939453,0.46691301465034485,0.15470708906650543,0.6453952193260193
1781546625473273,305592202,0.6172557473182678,0.005051266867667437,0.0035250242799520493,-0.7867386341094971,-0.14436116814613342,-0.010285377502441406,10.320891380310059,0.4047766923904419,0.20640632510185242,0.6951350569725037
1781546625500370,305608869,0.617255449295044,0.005042969714850187,0.003527440130710602,-0.7867387533187866,-0.120192751288414,-0.01184082217514515,10.318737983703613,0.4121147096157074,0.1338583528995514,0.6266210675239563
1781546625530723,305625536,0.6172625422477722,0.005050863139331341,0.0035277712158858776,-0.7867331504821777,-0.13087671995162964,-0.0029302514158189297,10.305814743041992,0.49171891808509827,0.21259179711341858,0.6938543915748596
1781546625531804,305642203,0.6172622442245483,0.005038484465330839,0.0035248075146228075,-0.7867335081100464,-0.11211410164833069,-0.02377462573349476,10.293655395507812,0.4238390028476715,0.08892729878425598,0.6325440406799316
1781546625560793,305658870,0.617257297039032,0.0050360579043626785,0.00352090853266418,-0.7867373824119568,-0.14210458099842072,-0.01464111264795065,10.320425987243652,0.47144654393196106,0.13878880441188812,0.5874336957931519
1781546625562033,305675537,0.6172575950622559,0.005033962894231081,0.003526634769514203,-0.7867371439933777,-0.12105819582939148,-0.01977284997701645,10.328372955322266,0.4205797016620636,0.1814083456993103,0.6291695237159729
1781546625591057,305692204,0.6172615885734558,0.00503504928201437,0.0035189599730074406,-0.7867339253425598,-0.13154394924640656,-0.009806914255023003,10.311675071716309,0.5063182711601257,0.14175988733768463,0.6695223450660706
1781546625592410,305708871,0.6172608137130737,0.005020126700401306,0.003516887314617634,-0.7867347002029419,-0.13007023930549622,-0.015370539389550686,10.305753707885742,0.4083752930164337,0.07894475013017654,0.6224590539932251
1781546625621314,305725538,0.6172541379928589,0.005018380004912615,0.0035192049108445644,-0.7867399454116821,-0.13957615196704865,-0.010077890008687973,10.312569618225098,0.4409033954143524,0.16881969571113586,0.5655604004859924
1781546625622464,305742205,0.617257833480835,0.005013322923332453,0.00353443156927824,-0.7867370247840881,-0.12747426331043243,-0.005700668785721064,10.297978401184082,0.35639432072639465,0.20574040710926056,0.6622611880302429
1781546625651396,305758872,0.6172468066215515,0.005015478003770113,0.0035297912545502186,-0.7867456078529358,-0.114134281873703,-0.018023962154984474,10.327332496643066,0.4952279329299927,0.16041873395442963,0.5349147915840149
1781546625680790,305775539,0.61724853515625,0.005028880201280117,0.0035295230336487293,-0.7867443561553955,-0.13495133817195892,-0.011063945479691029,10.302653312683105,0.5186508297920227,0.23988214135169983,0.6460867524147034
1781546625682364,305792206,0.6172478795051575,0.005026409402489662,0.003527779597789049,-0.7867448329925537,-0.1340036243200302,-0.015649350360035896,10.326398849487305,0.4594213664531708,0.14771483838558197,0.6238549947738647
1781546625710840,305808873,0.6172541975975037,0.005015669856220484,0.003533355426043272,-0.7867398262023926,-0.1403554081916809,-0.018553363159298897,10.322972297668457,0.384401798248291,0.134063258767128,0.6841472387313843
1781546625711871,305825540,0.6172440052032471,0.0050300415605306625,0.0035225404426455498,-0.7867479920387268,-0.13630713522434235,-0.019007541239261627,10.310877799987793,0.5803901553153992,0.20029771327972412,0.5450831055641174
1781546625740166,305842207,0.6172401309013367,0.0050327591598033905,0.003526095999404788,-0.786750853061676,-0.12248152494430542,-0.020151928067207336,10.316925048828125,0.45290297269821167,0.19826151430606842,0.6008034944534302
1781546625742726,305858874,0.6172378659248352,0.005035219248384237,0.003519451944157481,-0.7867525815963745,-0.1308927685022354,-0.0205274298787117,10.304787635803223,0.5068817138671875,0.15360575914382935,0.6160046458244324
1781546625770707,305875541,0.6172360181808472,0.005042369943112135,0.003516541561111808,-0.7867541313171387,-0.12203449755907059,-0.009895365685224533,10.310530662536621,0.5067024230957031,0.1947653740644455,0.6099600791931152
1781546625773184,305892208,0.617236316204071,0.005035961978137493,0.0035097175277769566,-0.7867540121078491,-0.12497413903474808,-0.013900717720389366,10.320669174194336,0.47008904814720154,0.10485198348760605,0.6367893218994141
1781546625800464,305908875,0.617233395576477,0.004927964881062508,0.0035172903444617987,-0.7867568135261536,-0.1366465985774994,-0.0139756565913558,10.303936958312988,0.35544660687446594,0.187222421169281,0.5978323221206665
1781546625802523,305925542,0.6172280311584473,0.004928528796881437,0.0035115096252411604,-0.7867609858512878,-0.13295981287956238,-0.01464814506471157,10.346193313598633,0.4947797656059265,0.14757397770881653,0.5832972526550293
1781546625830848,305942209,0.6172301769256592,0.004933648742735386,0.003505872329697013,-0.7867592573165894,-0.1262957602739334,-0.014751136302947998,10.308470726013184,0.5129647254943848,0.17289210855960846,0.6458690166473389
1781546625860255,305958876,0.617221474647522,0.004934469237923622,0.0034971435088664293,-0.7867661714553833,-0.13245157897472382,-0.016393225640058517,10.315542221069336,0.5119146704673767,0.13647088408470154,0.5587347149848938
1781546625863373,305975543,0.6172188520431519,0.004931803327053785,0.0034908095840364695,-0.7867683172225952,-0.13609972596168518,-0.0064371731132268906,10.310280799865723,0.48397114872932434,0.12777535617351532,0.6027756333351135
1781546625890263,305992210,0.617214024066925,0.004938473459333181,0.003493007505312562,-0.7867720723152161,-0.12225264310836792,-0.017054932191967964,10.309755325317383,0.4775167405605316,0.21447430551052094,0.5887270569801331
1781546625892097,306008877,0.6172125339508057,0.004929450806230307,0.0034852284006774426,-0.7867733836174011,-0.1363607794046402,-0.01998027041554451,10.329063415527344,0.46480002999305725,0.08724325150251389,0.6149544715881348
1781546625921548,306025544,0.6172119379043579,0.004933109972625971,0.0034895145799964666,-0.7867738604545593,-0.1250241994857788,-0.031177375465631485,10.312673568725586,0.4533126652240753,0.20708505809307098,0.6175669431686401
1781546625923185,306042211,0.617205798625946,0.004929950460791588,0.0034859725274145603,-0.7867785692214966,-0.13972599804401398,-0.008622235618531704,10.326395034790039,0.4668234884738922,0.13695749640464783,0.5820037722587585
1781546625950265,306058878,0.6172135472297668,0.0049417829141020775,0.0034796909894794226,-0.7867725491523743,-0.1313823163509369,-0.0034221583046019077,10.31112289428711,0.5448012948036194,0.20647037029266357,0.6854662895202637
1781546625952100,306075545,0.6172122955322266,0.004949893802404404,0.0034735589288175106,-0.7867735028266907,-0.14283372461795807,-0.01011351402848959,10.332080841064453,0.5284731984138489,0.18695347011089325,0.6186939477920532
1781546625981053,306092212,0.6172135472297668,0.004954364150762558,0.003474587108939886,-0.7867725491523743,-0.13198663294315338,-0.013861199840903282,10.310681343078613,0.4743279814720154,0.19767239689826965,0.6327937245368958
1781546626010508,306108879,0.6172130703926086,0.0049573080614209175,0.0034752648789435625,-0.7867727875709534,-0.13215874135494232,-0.017830969765782356,10.309361457824707,0.4697176516056061,0.18790116906166077,0.6241494417190552
1781546626012398,306125546,0.617206871509552,0.004964035470038652,0.0034680147655308247,-0.786777675151825,-0.1381918042898178,-0.018778664991259575,10.306182861328125,0.5290238857269287,0.1746850162744522,0.571784257888794
1781546626040653,306142213,0.6172038316726685,0.0049622319638729095,0.003468196140602231,-0.786780059337616,-0.13528116047382355,-0.02253740280866623,10.312819480895996,0.45237788558006287,0.16011138260364532,0.604004979133606
1781546626041695,306158880,0.6172085404396057,0.00496488343924284,0.003466287860646844,-0.7867763638496399,-0.1381591409444809,-0.018263602629303932,10.305091857910156,0.4822166860103607,0.17536376416683197,0.6676910519599915
1781546626070494,306175547,0.6172030568122864,0.004974815528839827,0.003448707750067115,-0.786780595779419,-0.14582069218158722,-0.02619030885398388,10.330395698547363,0.5983831882476807,0.14817588031291962,0.5820294618606567
1781546626072568,306192214,0.6171979308128357,0.004969502799212933,0.003450461896136403,-0.7867846488952637,-0.13794861733913422,-0.010767959989607334,10.312187194824219,0.42912155389785767,0.14779166877269745,0.583514928817749
1781546626101661,306208881,0.6171994805335999,0.0049740527756512165,0.003447270020842552,-0.7867833971977234,-0.1377769559621811,-0.016189489513635635,10.297330856323242,0.49732816219329834,0.18015332520008087,0.6448701024055481
1781546626103419,306225548,0.6171951293945312,0.004970078356564045,0.003436911152675748,-0.7867868542671204,-0.13520567119121552,-0.009956161491572857,10.310859680175781,0.5001519918441772,0.1036289855837822,0.5987352728843689
1781546626131113,306242215,0.6171889305114746,0.004956514108926058,0.003426125505939126,-0.786791980266571,-0.1329633891582489,-0.005518087651580572,10.287114143371582,0.46203386783599854,0.04989993944764137,0.5682113170623779
1781546626160762,306258882,0.6171879768371582,0.004955848213285208,0.0034053316339850426,-0.7867928147315979,-0.13717922568321228,-0.009126071818172932,10.310684204101562,0.5705420970916748,0.07724149525165558,0.6230865120887756
1781546626162753,306275549,0.6171949505805969,0.004959883634001017,0.003392144339159131,-0.7867873311042786,-0.12931814789772034,-0.009429794736206532,10.28812313079834,0.5490210652351379,0.1349533200263977,0.6885077953338623
1781546626190593,306292216,0.6171926259994507,0.004962273873388767,0.0033753295429050922,-0.7867892384529114,-0.1370469331741333,-0.010431699454784393,10.326313972473145,0.5620386600494385,0.11066605150699615,0.6124700307846069
1781546626192483,306308883,0.6171891689300537,0.004971520975232124,0.0033682810608297586,-0.7867919206619263,-0.13197992742061615,-0.006565916817635298,10.339151382446289,0.5383469462394714,0.18919460475444794,0.6051576733589172
1781546626221187,306325550,0.6171907186508179,0.004968398250639439,0.0033608218654990196,-0.7867907285690308,-0.13354988396167755,-0.007760369684547186,10.291154861450195,0.48796671628952026,0.12052696198225021,0.6397347450256348
1781546626222878,306342217,0.6171929240226746,0.004970995243638754,0.00336242513731122,-0.7867890000343323,-0.1276276856660843,-0.015756769105792046,10.324835777282715,0.46301355957984924,0.18995657563209534,0.6538025140762329
1781546626251059,306358884,0.617194414138794,0.004967463202774525,0.0033659045584499836,-0.7867878675460815,-0.13158971071243286,-0.01195153035223484,10.324216842651367,0.42695727944374084,0.16472165286540985,0.6466245055198669
1781546626254421,306375551,0.617185115814209,0.004958671052008867,0.00336821167729795,-0.7867951989173889,-0.10662104189395905,-0.012963751330971718,10.295056343078613,0.4116537272930145,0.13125869631767273,0.543136477470398
1781546626280401,306392218,0.6171807646751404,0.004958692472428083,0.0033595815766602755,-0.7867985963821411,-0.124398373067379,-0.00636207265779376,10.327686309814453,0.5077781677246094,0.1327442079782486,0.6003423929214478
1781546626310742,306408885,0.6171798706054688,0.00495673343539238,0.0033572621177881956,-0.7867993116378784,-0.11890573799610138,-0.0286813173443079,10.323455810546875,0.46512025594711304,0.14863689243793488,0.6245848536491394
1781546626312757,306425552,0.6171633005142212,0.0049491156823933125,0.0033618886955082417,-0.786812424659729,-0.12839241325855255,-0.019869202747941017,10.329617500305176,0.40444374084472656,0.1474459022283554,0.48216545581817627
1781546626340322,306442219,0.6171629428863525,0.0049516488797962666,0.003359232796356082,-0.7868127226829529,-0.13369694352149963,-0.03444975987076759,10.316685676574707,0.4861610233783722,0.17154744267463684,0.6176182627677917
1781546626342828,306458886,0.6171696782112122,0.004942259751260281,0.003360459115356207,-0.7868075966835022,-0.13927538692951202,-0.023595815524458885,10.303739547729492,0.41402289271354675,0.12354926764965057,0.689820408821106
1781546626370817,306475553,0.6171666383743286,0.004945235326886177,0.0033500082790851593,-0.7868098020553589,-0.1279812753200531,-0.01990862563252449,10.332210540771484,0.5302661061286926,0.140799418091774,0.5975762605667114
1781546626372251,306492220,0.6171646118164062,0.004951980896294117,0.003346162848174572,-0.786811351776123,-0.13100004196166992,-0.014433573000133038,10.324739456176758,0.5103137493133545,0.18928423523902893,0.617874264717102
1781546626400679,306508887,0.6171571016311646,0.004940988961607218,0.003344923257827759,-0.7868174314498901,-0.1337537318468094,-0.022691035643219948,10.323437690734863,0.42136090993881226,0.10433973371982574,0.5638315081596375
1781546626402987,306525554,0.6171552538871765,0.004940827377140522,0.0033460247796028852,-0.7868187427520752,-0.1327090561389923,-0.01931851916015148,10.302760124206543,0.4543052315711975,0.17289851605892181,0.6185211539268494
1781546626430857,306542221,0.6171553730964661,0.004941598512232304,0.0033376053906977177,-0.7868186235427856,-0.14082078635692596,-0.01810646243393421,10.321903228759766,0.5097246766090393,0.13755939900875092,0.6326144933700562
1781546626461291,306558888,0.6171501874923706,0.004942860919982195,0.003332435619086027,-0.7868228554725647,-0.13402235507965088,-0.011515517719089985,10.324488639831543,0.494446724653244,0.15395154058933258,0.5861530900001526
1781546626463236,306575555,0.6171407699584961,0.004938766825944185,0.003319240640848875,-0.7868303060531616,-0.14069116115570068,-0.008353947661817074,10.334452629089355,0.5153338313102722,0.09091866761445999,0.5536888837814331
1781546626490428,306592222,0.6171436905860901,0.004936417564749718,0.0033251538407057524,-0.7868280410766602,-0.13146138191223145,-0.007130957208573818,10.31534481048584,0.4188380539417267,0.18148519098758698,0.6540266871452332
1781546626492090,306608889,0.6171395182609558,0.004935193341225386,0.0033353432081639767,-0.7868313193321228,-0.141309916973114,-0.015813814476132393,10.328513145446777,0.40084514021873474,0.2056763619184494,0.590110182762146
1781546626521365,306625556,0.6171382069587708,0.004935688804835081,0.003332141786813736,-0.786832332611084,-0.13567017018795013,0.004019794054329395,10.299681663513184,0.48048779368400574,0.15819044411182404,0.611381471157074
1781546626523279,306642223,0.6171265840530396,0.0049511403776705265,0.003337807720527053,-0.7868413329124451,-0.12679480016231537,-0.008651056326925755,10.310284614562988,0.4963997006416321,0.27668121457099915,0.5322190523147583
1781546626550833,306658890,0.6171333193778992,0.004946060013025999,0.003331173211336136,-0.7868361473083496,-0.1347300261259079,-0.010385305620729923,10.295642852783203,0.47499388456344604,0.11344504356384277,0.6813682317733765
1781546626551801,306675557,0.6171292066574097,0.0049516865983605385,0.003337301081046462,-0.7868393063545227,-0.11988162249326706,-0.021192604675889015,10.31408977508545,0.4519680440425873,0.22552619874477386,0.5868700742721558
1781546626580913,306692224,0.617127537727356,0.004941362887620926,0.0033409721218049526,-0.7868406176567078,-0.12283234298229218,-0.015796225517988205,10.327815055847168,0.3973489999771118,0.1287742555141449,0.6132513284683228
1781546626610470,306708891,0.6171261072158813,0.004942305386066437,0.0033380775712430477,-0.7868416905403137,-0.12741713225841522,-0.023839140310883522,10.313352584838867,0.4806414842605591,0.16190427541732788,0.6145062446594238
1781546626613121,306725558,0.6171236634254456,0.004935659933835268,0.0033406089060008526,-0.7868436574935913,-0.13283106684684753,-0.0170906949788332,10.304444313049316,0.4192606806755066,0.14386014640331268,0.6028780937194824
1781546626641577,306742225,0.6171224117279053,0.004943599458783865,0.0033284358214586973,-0.7868446707725525,-0.1375160664319992,-0.020458372309803963,10.318818092346191,0.5605146884918213,0.16035470366477966,0.6238036751747131
1781546626642924,306758892,0.6171283721923828,0.004940013401210308,0.0033313268795609474,-0.7868399620056152,-0.1260613054037094,-0.009444763883948326,10.308499336242676,0.4296466112136841,0.16198112070560455,0.6910625696182251
1781546626670671,306775559,0.617131233215332,0.004927339963614941,0.0033390677999705076,-0.786837637424469,-0.137837752699852,-0.007277581840753555,10.316152572631836,0.3651154339313507,0.13337171077728271,0.6535784006118774
1781546626673195,306792226,0.6171320080757141,0.0049277194775640965,0.003334006993100047,-0.7868370413780212,-0.13581766188144684,-0.001287570339627564,10.302781105041504,0.48990049958229065,0.1496742069721222,0.6373015642166138
1781546626701738,306808893,0.6171309351921082,0.004925418179482222,0.0033375355415046215,-0.7868380546569824,-0.1308891922235489,-0.013593164272606373,10.321939468383789,0.43219512701034546,0.17157308757305145,0.6126109957695007
1781546626703806,306825560,0.6171364784240723,0.004920421168208122,0.003345262259244919,-0.7868337035179138,-0.11806491017341614,-0.022919911891222,10.299631118774414,0.39768198132514954,0.1748770922422409,0.6750290989875793
1781546626730871,306842227,0.6171326637268066,0.004917881451547146,0.0033529119100421667,-0.7868368029594421,-0.12432684749364853,-0.007663812022656202,10.310370445251465,0.40898996591567993,0.18777309358119965,0.5953992009162903
1781546626760278,306858894,0.6171329021453857,0.00492217717692256,0.003343916730955243,-0.7868363857269287,-0.1271592080593109,-0.014290524646639824,10.310173034667969,0.5277944803237915,0.1541564166545868,0.6330754160881042
1781546626761998,306875561,0.6171327233314514,0.004925140645354986,0.003360748989507556,-0.7868363857269287,-0.12013910710811615,-0.0177916307002306,10.320276260375977,0.3824424743652344,0.25654321908950806,0.6271206140518188
1781546626790229,306892228,0.6171306371688843,0.004923192784190178,0.003357586218044162,-0.7868380546569824,-0.1355990469455719,-0.016604330390691757,10.332535743713379,0.46990975737571716,0.14514076709747314,0.6115095615386963
1781546626791943,306908895,0.6171355843544006,0.0049195964820683,0.003355317283421755,-0.7868343591690063,-0.1480049192905426,-0.018252961337566376,10.287678718566895,0.45776936411857605,0.14004382491111755,0.6673452854156494
1781546626820983,306925562,0.6171421408653259,0.004922807682305574,0.0033646891824901104,-0.7868291735649109,-0.1278132200241089,-0.00732742715626955,10.286456108093262,0.4235379695892334,0.22625616192817688,0.6865675449371338
1781546626823145,306942229,0.617139995098114,0.004907163325697184,0.003367449389770627,-0.7868309020996094,-0.12451247870922089,-0.017505450174212456,10.303257942199707,0.37974029779434204,0.09614367038011551,0.6111510396003723
1781546626850811,306958896,0.6171364784240723,0.0049054319970309734,0.003363746916875243,-0.786833643913269,-0.13317438960075378,-0.012910108081996441,10.316295623779297,0.47389256954193115,0.14400099217891693,0.5952582955360413
1781546626881033,306975563,0.6171279549598694,0.0049138846807181835,0.003361581591889262,-0.7868402600288391,-0.13538488745689392,-0.019826658070087433,10.32070541381836,0.5090203881263733,0.2055739313364029,0.5506025552749634
1781546626882677,306992230,0.6171234846115112,0.004912118427455425,0.0033727572299540043,-0.7868437767028809,-0.13901466131210327,-0.01338234543800354,10.282779693603516,0.39321255683898926,0.20694419741630554,0.5920183658599854
1781546626910936,307008897,0.6171201467514038,0.004925932269543409,0.003374733729287982,-0.7868462800979614,-0.12035010755062103,-0.020556040108203888,10.312333106994629,0.5089179873466492,0.25217628479003906,0.61161208152771
1781546626912405,307025564,0.6171157956123352,0.004923486616462469,0.003370092250406742,-0.7868496775627136,-0.13037024438381195,-0.02185051143169403,10.302160263061523,0.47591596841812134,0.13616350293159485,0.5944515466690063
1781546626940219,307042231,0.6171137094497681,0.004926031921058893,0.0033723562955856323,-0.7868512868881226,-0.12414803355932236,-0.02107458934187889,10.345145225524902,0.4596518874168396,0.19243460893630981,0.6051960587501526
1781546626942326,307058898,0.6171039342880249,0.004925901535898447,0.0033666896633803844,-0.7868589758872986,-0.1278812140226364,-0.011644018813967705,10.325008392333984,0.49162939190864563,0.14430835843086243,0.5411771535873413
1781546626970642,307075565,0.6171004772186279,0.004905067849904299,0.003377367276698351,-0.7868618965148926,-0.1380380243062973,-0.02720063179731369,10.306353569030762,0.31505540013313293,0.10166320204734802,0.5929660201072693
1781546626972294,307092232,0.6170946955680847,0.004895840305835009,0.0033799943048506975,-0.7868664860725403,-0.11969175189733505,-0.028394976630806923,10.29393482208252,0.40796545147895813,0.13028539717197418,0.5754084587097168
1781546627001887,307108899,0.6170961856842041,0.004888385068625212,0.003383802017197013,-0.7868654131889343,-0.13856014609336853,-0.007459968328475952,10.324173927307129,0.4086442291736603,0.1448846310377121,0.6427058577537537
1781546627030605,307125566,0.6170864105224609,0.004883032292127609,0.0033813666086643934,-0.7868729829788208,-0.11321914941072464,-0.02329183742403984,10.318892478942871,0.4518784284591675,0.1297987550497055,0.5497829914093018
1781546627032328,307142233,0.6170943975448608,0.004865827038884163,0.0033905853051692247,-0.7868667840957642,-0.13045646250247955,-0.0227983221411705,10.322117805480957,0.3377610146999359,0.11514827609062195,0.690307080745697
1781546627060419,307158900,0.6170948147773743,0.004866810981184244,0.0033865065779536963,-0.7868664264678955,-0.11308682709932327,-0.01803123764693737,10.315001487731934,0.48728156089782715,0.15710829198360443,0.626435399055481
1781546627062501,307175567,0.6170842051506042,0.0048656584694981575,0.003377276472747326,-0.7868748903274536,-0.12453465908765793,0.0009869388304650784,10.31881332397461,0.5066255331039429,0.12366451323032379,0.5375657081604004
1781546627090168,307192234,0.6170759797096252,0.0048618135042488575,0.0033936472609639168,-0.7868812084197998,-0.13447612524032593,-0.007867655716836452,10.321810722351074,0.35656076669692993,0.21768872439861298,0.5540603399276733
1781546627092024,307208901,0.6170760989189148,0.004853338468819857,0.0034021525643765926,-0.7868810892105103,-0.12488079816102982,-0.00966991949826479,10.294398307800293,0.3789846897125244,0.15934300422668457,0.6308599710464478
1781546627120383,307225568,0.6170655488967896,0.004860236309468746,0.003407419892027974,-0.7868894338607788,-0.12991288304328918,-0.015123780816793442,10.303178787231445,0.46237969398498535,0.22870218753814697,0.5310600996017456
1781546627122416,307242235,0.6170591115951538,0.004865092225372791,0.0034080795012414455,-0.7868943810462952,-0.14298748970031738,-0.024554239585995674,10.31639575958252,0.47838762402534485,0.19815905392169952,0.5714641213417053
1781546627150641,307258902,0.6170632243156433,0.00486737210303545,0.003405508119612932,-0.7868911623954773,-0.13497678935527802,-0.01935085840523243,10.305398941040039,0.48445776104927063,0.17052292823791504,0.6618640422821045
1781546627180966,307275569,0.6170598864555359,0.0048803468234837055,0.0034062566701322794,-0.7868936061859131,-0.12376895546913147,-0.00424495805054903,10.310685157775879,0.512055516242981,0.24245624244213104,0.6072323322296143
1781546627182995,307292236,0.6170552968978882,0.004878629930317402,0.003403259674087167,-0.7868973612785339,-0.1392718106508255,-0.01441569160670042,10.313284873962402,0.47021710872650146,0.14711293578147888,0.5839503407478333
1781546627210655,307308903,0.6170474886894226,0.004876065533608198,0.0034189831931144,-0.7869033813476562,-0.13001659512519836,-0.010489015839993954,10.301648139953613,0.3654100000858307,0.2219020426273346,0.5660727024078369
1781546627212750,307325570,0.6170465350151062,0.004877262283116579,0.0034163598902523518,-0.7869040966033936,-0.13053156435489655,-0.014244033955037594,10.301401138305664,0.4803469181060791,0.16445273160934448,0.6179767847061157
1781546627241921,307342237,0.6170393228530884,0.004879868123680353,0.0034264379646629095,-0.7869097590446472,-0.1300809681415558,-0.003000437980517745,10.31599235534668,0.41800564527511597,0.2259616255760193,0.5585041046142578
1781546627242514,307358904,0.6170404553413391,0.0048960973508656025,0.0034182725939899683,-0.786908745765686,-0.12589029967784882,-0.0033953238744288683,10.305106163024902,0.5739741921424866,0.22227339446544647,0.6415789127349854
1781546627270848,307375571,0.6170350909233093,0.004898774903267622,0.0034171028528362513,-0.7869129776954651,-0.1364680677652359,-0.020277095958590508,10.32405948638916,0.47900229692459106,0.17860376834869385,0.5774959325790405
1781546627272202,307392238,0.617030680179596,0.004903093911707401,0.003418602282181382,-0.7869164347648621,-0.1278136521577835,-0.0048707942478358746,10.335493087768555,0.47143375873565674,0.19881215691566467,0.58565354347229
1781546627300521,307408905,0.6170327663421631,0.004903488326817751,0.0034084017388522625,-0.7869148254394531,-0.12353341281414032,-0.015077408403158188,10.296772956848145,0.5178055167198181,0.12792903184890747,0.6441529393196106
1781546627330650,307425572,0.6170313358306885,0.004912421572953463,0.0034064906649291515,-0.7869158983230591,-0.13889677822589874,-0.02850613370537758,10.309261322021484,0.5093277096748352,0.20932617783546448,0.6161454319953918
1781546627331920,307442239,0.617026686668396,0.004919115919619799,0.0034017139114439487,-0.7869195342063904,-0.1258753389120102,-0.011189952492713928,10.330686569213867,0.5154363512992859,0.18504536151885986,0.5881380438804626
1781546627360347,307458906,0.6170199513435364,0.004909684415906668,0.0034013185650110245,-0.7869248390197754,-0.13735173642635345,-0.01882525347173214,10.320587158203125,0.4235379695892334,0.11639050394296646,0.566034197807312
1781546627362347,307475573,0.6170147657394409,0.004891987890005112,0.0034020659513771534,-0.7869290709495544,-0.12821808457374573,-0.016572214663028717,10.313695907592773,0.38209664821624756,0.07652433961629868,0.5840015411376953
1781546627390154,307492240,0.6170157194137573,0.004896160680800676,0.0033985429909080267,-0.7869283556938171,-0.12240642309188843,-0.01200175192207098,10.307415962219238,0.4976996183395386,0.17673403024673462,0.6405543684959412
1781546627392105,307508907,0.617019772529602,0.004899183288216591,0.0033938821870833635,-0.786925196647644,-0.14272890985012054,-0.009216994047164917,10.304214477539062,0.49886491894721985,0.1656821370124817,0.6607756018638611
1781546627421065,307525574,0.6170161962509155,0.004903419408947229,0.0033810685854405165,-0.7869278788566589,-0.12264245003461838,-0.015130933374166489,10.333969116210938,0.5485023260116577,0.13761061429977417,0.6034927368164062
1781546627422148,307542241,0.6170128583908081,0.004907990340143442,0.0033815703354775906,-0.786930501461029,-0.11661297082901001,-0.019533244892954826,10.308642387390137,0.477811336517334,0.19595636427402496,0.602135419845581
1781546627450934,307558908,0.6170139312744141,0.004907452035695314,0.0033692307770252228,-0.7869297862052917,-0.13574209809303284,-0.02144651487469673,10.320816040039062,0.52550208568573,0.11384204775094986,0.6320125460624695
1781546627452257,307575575,0.6170123219490051,0.0049113864079117775,0.003369166748598218,-0.786931037902832,-0.12983375787734985,-0.015052086673676968,10.284760475158691,0.4780289828777313,0.19010385870933533,0.6211400032043457
1781546627481115,307592242,0.6170089840888977,0.004909814335405827,0.0033725283574312925,-0.7869336605072021,-0.1231037825345993,-0.02170400135219097,10.32156753540039,0.4363955855369568,0.17483869194984436,0.5950918793678284
1781546627510844,307608909,0.6170067191123962,0.004910096991807222,0.0033766678534448147,-0.7869354486465454,-0.13653959333896637,-0.01643267273902893,10.315126419067383,0.44013503193855286,0.18815727531909943,0.5960010886192322
1781546627512492,307625576,0.617003858089447,0.004912753123790026,0.0033760983496904373,-0.7869377136230469,-0.12618330121040344,-0.006780644413083792,10.310759544372559,0.4755958020687103,0.18106254935264587,0.5955143570899963
1781546627540258,307642243,0.6170008778572083,0.004899770952761173,0.0033808357547968626,-0.7869399785995483,-0.13443320989608765,-0.013375014998018742,10.305950164794922,0.3805086016654968,0.11892616003751755,0.5959882140159607
1781546627542321,307658910,0.6170028448104858,0.004895605146884918,0.003388723824173212,-0.7869384288787842,-0.12931208312511444,-0.020952997729182243,10.321377754211426,0.4004993736743927,0.18003806471824646,0.6483534574508667
1781546627570649,307675577,0.6169995069503784,0.004900953732430935,0.0033882292918860912,-0.7869410514831543,-0.13495175540447235,-0.00835044402629137,10.3021879196167,0.4865580201148987,0.1959819793701172,0.5967823266983032
1781546627572441,307692244,0.6170042753219604,0.0049081225879490376,0.003387698670849204,-0.7869373559951782,-0.1308354139328003,-0.004432556685060263,10.304448127746582,0.49404972791671753,0.2056635618209839,0.6713665127754211
1781546627601244,307708911,0.6170067191123962,0.004909095820039511,0.0033845065627247095,-0.7869352698326111,-0.12463440001010895,-0.015037951990962029,10.313924789428711,0.48234477639198303,0.16084134578704834,0.6451903581619263
1781546627602601,307725578,0.6170068383216858,0.004901583306491375,0.0033788569271564484,-0.7869352698326111,-0.13554897904396057,-0.018188590183854103,10.32314395904541,0.45967748761177063,0.1044934093952179,0.6304373741149902
1781546627631062,307742245,0.6170070171356201,0.004900666885077953,0.0033936805557459593,-0.7869350910186768,-0.12795312702655792,-0.018925288692116737,10.317111015319824,0.37689724564552307,0.22701174020767212,0.6282474994659424
1781546627660795,307758912,0.6170027256011963,0.004898629151284695,0.003383590141311288,-0.7869384288787842,-0.12047169357538223,-0.011129156686365604,10.318827629089355,0.5071250796318054,0.11527635902166367,0.5951046943664551
1781546627662817,307775579,0.6169992685317993,0.004918255843222141,0.0033819261007010937,-0.7869411706924438,-0.12851236760616302,-0.0009286929853260517,10.301219940185547,0.5534840226173401,0.2682354152202606,0.5974225401878357
1781546627690275,307792246,0.6170024871826172,0.004918450489640236,0.003392106154933572,-0.7869386076927185,-0.1342257857322693,-0.005439411383122206,10.299899101257324,0.4066464304924011,0.21336019039154053,0.6503769159317017
1781546627692813,307808913,0.6170002818107605,0.00491962069645524,0.0033877489622682333,-0.786940336227417,-0.1305069774389267,-0.012352357618510723,10.310194969177246,0.48961880803108215,0.1569354236125946,0.615325927734375
1781546627721192,307825580,0.6170034408569336,0.0049046482890844345,0.0034016526769846678,-0.7869378924369812,-0.152861088514328,-0.03438151627779007,10.328011512756348,0.3222653865814209,0.14707452058792114,0.6438456177711487
1781546627722516,307842247,0.6170058250427246,0.004899185616523027,0.003401100868359208,-0.7869359850883484,-0.1345190405845642,-0.024722320958971977,10.309490203857422,0.4405704736709595,0.1372264325618744,0.6577533483505249
1781546627750448,307858914,0.6170026659965515,0.004899473395198584,0.0033964687027037144,-0.7869384288787842,-0.11219318956136703,-0.01355395745486021,10.314958572387695,0.4874800443649292,0.1509932577610016,0.5979475975036621
1781546627752599,307875581,0.6170059442520142,0.004895865451544523,0.003390811150893569,-0.7869361042976379,-0.13112878799438477,-0.019561853259801865,10.31123161315918,0.47622331976890564,0.12558546662330627,0.6500822901725769
1781546627781056,307892248,0.6170050501823425,0.004891809541732073,0.0033965178299695253,-0.7869368195533752,-0.14223290979862213,-0.01828872412443161,10.319875717163086,0.41298556327819824,0.17136816680431366,0.6234835386276245
1781546627810941,307908915,0.6170812845230103,0.004914154764264822,0.003466012654826045,-0.7868764400482178,-0.13411849737167358,-0.011740688234567642,10.295039176940918,0.4594470262527466,0.1594710648059845,0.552933394908905
1781546627812093,307925582,0.6170833706855774,0.004902212880551815,0.003463565371930599,-0.7868748903274536,-0.13201211392879486,-0.012237781658768654,10.32347297668457,0.42370447516441345,0.09380010515451431,0.6452927589416504
1781546627840124,307942249,0.617080807685852,0.004897768143564463,0.003461637068539858,-0.7868768572807312,-0.1236509457230568,-0.0169083084911108,10.305999755859375,0.4530438482761383,0.1364196538925171,0.6039794683456421
1781546627842156,307958916,0.6170775294303894,0.004891039803624153,0.0034572090953588486,-0.7868795394897461,-0.13294591009616852,-0.015370639972388744,10.297696113586426,0.4568089246749878,0.11345785856246948,0.6029805541038513
1781546627871159,307975583,0.6170805096626282,0.004892759490758181,0.003461715066805482,-0.7868772149085999,-0.13172602653503418,-0.014354895800352097,10.281810760498047,0.4441561996936798,0.19709612429141998,0.6463940739631653
1781546627872184,307992250,0.617077112197876,0.004896987229585648,0.0034625325351953506,-0.7868798971176147,-0.12621468305587769,-0.01879638060927391,10.316654205322266,0.47508352994918823,0.19498306512832642,0.5937471985816956
1781546627900996,308008917,0.6170811057090759,0.004902881104499102,0.003459563245996833,-0.7868767380714417,-0.12696772813796997,-0.015405690297484398,10.29671859741211,0.5022457838058472,0.18797799944877625,0.6589186787605286
1781546627901831,308025584,0.6170752644538879,0.004899900872260332,0.003462292719632387,-0.7868813872337341,-0.12372961640357971,-0.014050918631255627,10.309028625488281,0.4342312812805176,0.16411976516246796,0.574063777923584
1781546627931166,308042251,0.6170711517333984,0.004909073002636433,0.003466307884082198,-0.7868845462799072,-0.1286759227514267,-0.024686763063073158,10.310663223266602,0.4787909984588623,0.23532947897911072,0.5864924192428589
1781546627961049,308058918,0.6170731782913208,0.004894469399005175,0.003461975371465087,-0.7868830561637878,-0.1313791275024414,-0.017630701884627342,10.325955390930176,0.422628790140152,0.07131215929985046,0.6474698781967163
1781546627962764,308075585,0.6170707941055298,0.004902302753180265,0.0034620126243680716,-0.7868849635124207,-0.13280245661735535,-0.024482715874910355,10.319103240966797,0.49448516964912415,0.21117030084133148,0.6035439968109131
1781546627990345,308092252,0.6170724630355835,0.004900367930531502,0.0034621513914316893,-0.7868834733963013,-0.14488603174686432,-0.014887603931128979,10.321438789367676,0.45224982500076294,0.15880513191223145,0.642539381980896
1781546627992758,308108919,0.617075502872467,0.004907237831503153,0.0034619478974491358,-0.7868810892105103,-0.14312207698822021,-0.015232177451252937,10.307056427001953,0.49139881134033203,0.2049720138311386,0.6551792621612549
1781546628021090,308125586,0.6170761585235596,0.004909259732812643,0.003459758823737502,-0.7868805527687073,-0.1300058662891388,-0.016894003376364708,10.317172050476074,0.4816659986972809,0.17031802237033844,0.6325631141662598
1781546628022538,308142253,0.6170680522918701,0.0049040112644433975,0.003473927266895771,-0.7868869304656982,-0.13439415395259857,-0.030297791585326195,10.305621147155762,0.36289989948272705,0.2003617137670517,0.5485535860061646
1781546628050263,308158920,0.6170652508735657,0.00490886764600873,0.003471908625215292,-0.7868890762329102,-0.13396787643432617,-0.0018666208488866687,10.320677757263184,0.4929995834827423,0.18637718260288239,0.6003168225288391
1781546628051752,308175587,0.6170650124549866,0.004911752883344889,0.003462920431047678,-0.7868892550468445,-0.12066123634576797,-0.012591825798153877,10.303829193115234,0.5222557187080383,0.146043598651886,0.6228623986244202
1781546628080758,308192254,0.617068886756897,0.004905405454337597,0.003464403562247753,-0.7868862152099609,-0.1308462768793106,-0.011197105050086975,10.290672302246094,0.4261888861656189,0.1406073123216629,0.65999436378479
1781546628111185,308208921,0.6170687675476074,0.004892915021628141,0.003464034991338849,-0.78688645362854,-0.1391577422618866,-0.007767611648887396,10.318148612976074,0.4104499816894531,0.09951174259185791,0.6180793046951294
1781546628112193,308225588,0.6170720458030701,0.004882448352873325,0.003455935511738062,-0.7868840098381042,-0.12754185497760773,-0.020924389362335205,10.30127239227295,0.46061238646507263,0.07766410708427429,0.6490065455436707
1781546628140245,308242255,0.6170752048492432,0.004890983458608389,0.003454477759078145,-0.7868813276290894,-0.1275552362203598,-0.016234612092375755,10.322463989257812,0.5052552819252014,0.20867305994033813,0.6506329774856567
1781546628142090,308258922,0.6170835494995117,0.004903128836303949,0.0034502102062106133,-0.7868747711181641,-0.1410895735025406,-0.018699565902352333,10.313572883605957,0.5355423092842102,0.21626721322536469,0.6954551935195923
1781546628170371,308275589,0.6170857548713684,0.004911371041089296,0.0034551331773400307,-0.7868728637695312,-0.12238496541976929,-0.0075171878561377525,10.325501441955566,0.46961522102355957,0.2341448962688446,0.6411947011947632
1781546628172843,308292256,0.6170819997787476,0.004915454424917698,0.0034555275924503803,-0.7868759036064148,-0.12916187942028046,-0.020023183897137642,10.315545082092285,0.4766971468925476,0.19239619374275208,0.5953992009162903
1781546628201165,308308923,0.6170850992202759,0.0049208360724151134,0.0034572721924632788,-0.7868735194206238,-0.12877517938613892,-0.01589605212211609,10.318863868713379,0.47460973262786865,0.20520254969596863,0.6464325189590454
1781546628202921,308325590,0.6170793771743774,0.004917746409773827,0.003461955115199089,-0.7868779897689819,-0.14465367794036865,-0.013206792995333672,10.322051048278809,0.42319220304489136,0.17177796363830566,0.5740765929222107
1781546628232269,308342257,0.6170804500579834,0.004923557862639427,0.003454358084127307,-0.7868771553039551,-0.12924735248088837,-0.026548277586698532,10.294017791748047,0.5269364714622498,0.16789764165878296,0.6394914388656616
1781546628260501,308358924,0.6170777082443237,0.004922167863696814,0.0034559154883027077,-0.786879301071167,-0.12205199897289276,-0.021904123947024345,10.318499565124512,0.4471144676208496,0.16775676608085632,0.6029677391052246
1781546628261920,308375591,0.6170799136161804,0.004929881542921066,0.0034624214749783278,-0.7868775129318237,-0.13148999214172363,-0.0254876296967268,10.321892738342285,0.45876821875572205,0.2380123734474182,0.6456000804901123
1781546628290685,308392258,0.61708003282547,0.004932370502501726,0.0034718120004981756,-0.7868773341178894,-0.12335808575153351,-0.02257321961224079,10.321141242980957,0.4211047887802124,0.22197885811328888,0.6256221532821655
1781546628291913,308408925,0.6170780062675476,0.004916349425911903,0.003476360347121954,-0.7868790030479431,-0.13830982148647308,-0.01439423393458128,10.339902877807617,0.3688676953315735,0.1012405976653099,0.6078982353210449
1781546628320652,308425592,0.6170778274536133,0.004918314050883055,0.0034803401213139296,-0.7868791222572327,-0.12906132638454437,-0.020602352917194366,10.311135292053223,0.4481261670589447,0.1959947645664215,0.6259422898292542
1781546628322086,308442259,0.6170806884765625,0.004911025986075401,0.0034797661937773228,-0.786876916885376,-0.13182614743709564,-0.022397786378860474,10.302849769592285,0.43343091011047363,0.12680846452713013,0.6491410136222839
1781546628350507,308458926,0.6170798540115356,0.004911721218377352,0.0034809729550033808,-0.7868775725364685,-0.12863658368587494,-0.03550116717815399,10.30343246459961,0.45776936411857605,0.1775408238172531,0.6184506416320801
1781546628381276,308475593,0.6170811057090759,0.0049013495445251465,0.003485162975266576,-0.7868765592575073,-0.13412564992904663,-0.017244471237063408,10.302266120910645,0.39463403820991516,0.1302981972694397,0.6355599164962769
1781546628382307,308492260,0.6170677542686462,0.004907958675175905,0.0034889073576778173,-0.7868869304656982,-0.1357632279396057,-0.0029788201209157705,10.293015480041504,0.46978169679641724,0.2202884405851364,0.5130672454833984
1781546628410355,308508927,0.6170756220817566,0.004903498571366072,0.003479802282527089,-0.7868809700012207,-0.14450904726982117,-0.026356801390647888,10.34843921661377,0.491373211145401,0.10591491311788559,0.6855942606925964
1781546628412311,308525594,0.6170809268951416,0.0048998394049704075,0.003479722887277603,-0.7868767976760864,-0.13141444325447083,-0.026556769385933876,10.309615135192871,0.445859432220459,0.1485728770494461,0.6791655421257019
1781546628440644,308542261,0.6170864105224609,0.004906254354864359,0.0034921334590762854,-0.786872386932373,-0.13564911484718323,-0.00600087596103549,10.32443904876709,0.42124566435813904,0.2560309171676636,0.6687027215957642
1781546628442778,308558928,0.6170897483825684,0.004905654117465019,0.003492539282888174,-0.7868698239326477,-0.13773761689662933,-0.02706831321120262,10.306865692138672,0.45645034313201904,0.16714206337928772,0.6554993987083435
1781546628470475,308575595,0.6170902848243713,0.004900805652141571,0.003478250466287136,-0.7868695855140686,-0.1372441053390503,-0.007256124634295702,10.310062408447266,0.5180872678756714,0.08178775012493134,0.6304885745048523
1781546628472984,308592262,0.6170993447303772,0.004899042658507824,0.0034673006739467382,-0.786862313747406,-0.12846150994300842,-0.016090407967567444,10.325244903564453,0.5126957893371582,0.11268946528434753,0.7057899236679077
1781546628501234,308608929,0.6170997619628906,0.004890648648142815,0.003474573139101267,-0.7868621349334717,-0.14074841141700745,-0.022204529494047165,10.328215599060059,0.3863355219364166,0.15407957136631012,0.6328833699226379
1781546628531137,308625596,0.6171019673347473,0.0048949457705020905,0.0034777980763465166,-0.7868604063987732,-0.12984493374824524,-0.011847974732518196,10.32351303100586,0.46210435032844543,0.20558033883571625,0.6381532549858093
1781546628533060,308642263,0.6170990467071533,0.004903355613350868,0.0034849776420742273,-0.7868624925613403,-0.1375802755355835,-0.011847974732518196,10.304987907409668,0.4584481120109558,0.24462048709392548,0.5951558351516724
1781546628561239,308658930,0.617099940776825,0.0049112653359770775,0.0034928922541439533,-0.7868617177009583,-0.1340612769126892,-0.0042091961950063705,10.312612533569336,0.4520193040370941,0.24501751363277435,0.6356880068778992
1781546628563053,308675597,0.6171028017997742,0.004893760662525892,0.0034899020101875067,-0.7868596911430359,-0.12591110169887543,-0.008182362653315067,10.316267013549805,0.40316304564476013,0.06125917285680771,0.6477515697479248
1781546628590998,308692264,0.6171064376831055,0.004879229702055454,0.0034867706708610058,-0.786857008934021,-0.13014493882656097,-0.013321299105882645,10.33065414428711,0.4164496660232544,0.07674845308065414,0.6563766598701477
1781546628593504,308708931,0.617107629776001,0.004886475391685963,0.0034785657189786434,-0.786855936050415,-0.13015636801719666,-0.025455251336097717,10.316923141479492,0.536400318145752,0.1730329841375351,0.6393377780914307
1781546628620655,308725598,0.6171094179153442,0.0048842402175068855,0.00347893126308918,-0.7868545055389404,-0.12605415284633636,-0.027615472674369812,10.315287590026855,0.4497781991958618,0.15808798372745514,0.6436663269996643
1781546628622913,308742265,0.6171098947525024,0.0048920270055532455,0.0034809454809874296,-0.786854088306427,-0.13589587807655334,-0.027400899678468704,10.304058074951172,0.48345887660980225,0.21931514143943787,0.6324352025985718
1781546628651130,308758932,0.6171090602874756,0.004890982061624527,0.0034752837382256985,-0.7868547439575195,-0.12823563814163208,-0.013321371749043465,10.321989059448242,0.48756980895996094,0.1389809250831604,0.6202051639556885
1781546628680853,308775599,0.617110550403595,0.004881643690168858,0.0034802635200321674,-0.786853551864624,-0.12221331149339676,-0.013371438719332218,10.307938575744629,0.3947237432003021,0.13926266133785248,0.6372888088226318
1781546628683048,308792266,0.6171121597290039,0.004891879390925169,0.0034637057688087225,-0.7868524193763733,-0.12858135998249054,-0.01625865325331688,10.327576637268066,0.5943363308906555,0.1537722647190094,0.6379931569099426
1781546628710891,308808933,0.6171066761016846,0.004890556912869215,0.003468372393399477,-0.7868567109107971,-0.14860250055789948,-0.019143590703606606,10.326391220092773,0.4307992458343506,0.1813187152147293,0.5762792825698853
1781546628713820,308825600,0.6171094179153442,0.004899209830909967,0.003472011536359787,-0.7868545055389404,-0.11934161186218262,-0.020649021491408348,10.324617385864258,0.4783107340335846,0.23089206218719482,0.6435510516166687
1781546628740300,308842267,0.6171057224273682,0.004898338112980127,0.0034720744006335735,-0.7868573665618896,-0.129862442612648,-0.020781204104423523,10.316883087158203,0.4576413035392761,0.1641709953546524,0.5845777988433838
1781546628742197,308858934,0.6171010136604309,0.004894268233329058,0.003470856696367264,-0.7868610620498657,-0.13808132708072662,-0.008951368741691113,10.330057144165039,0.45082828402519226,0.14147813618183136,0.5904687643051147
1781546628770448,308875601,0.6171042323112488,0.004885581322014332,0.003472481155768037,-0.7868585586547852,-0.1433701515197754,-0.0064371731132268906,10.311053276062012,0.4155852794647217,0.12854374945163727,0.6511068344116211
1781546628772048,308892268,0.6171053051948547,0.00488252704963088,0.003475678851827979,-0.7868577241897583,-0.1348230093717575,-0.007445663679391146,10.298425674438477,0.4309912919998169,0.1657077521085739,0.6397731900215149
1781546628800499,308908935,0.6171027421951294,0.004888549912720919,0.0034704660065472126,-0.7868598103523254,-0.13506977260112762,-0.027039702981710434,10.324914932250977,0.5152314901351929,0.17909039556980133,0.6041331887245178
1781546628830691,308925602,0.6170933246612549,0.004880651365965605,0.0034600074868649244,-0.7868672609329224,-0.13023832440376282,-0.015506435185670853,10.29649829864502,0.48489317297935486,0.08153162151575089,0.5455568432807922
1781546628832569,308942269,0.6170907616615295,0.004885244183242321,0.0034520523622632027,-0.7868692874908447,-0.12950831651687622,-0.008940380997955799,10.301094055175781,0.5240294337272644,0.1596887707710266,0.6041459441184998
1781546628860898,308958936,0.6170969009399414,0.004888421390205622,0.003449008334428072,-0.7868644595146179,-0.1278442144393921,-0.012622421607375145,10.291565895080566,0.4910658597946167,0.17291773855686188,0.6733770966529846
1781546628862682,308975603,0.61709064245224,0.004889752250164747,0.003452063538134098,-0.7868693470954895,-0.12987354397773743,-0.02378535456955433,10.315326690673828,0.4507514536380768,0.18878480792045593,0.5722581744194031
1781546628890495,308992270,0.6170957684516907,0.004893783945590258,0.0034578547347337008,-0.7868652939796448,-0.1341971755027771,-0.02034146711230278,10.303364753723145,0.4468327462673187,0.21503780782222748,0.6686899662017822
1781546628892163,309008937,0.617100715637207,0.004899989813566208,0.0034581045620143414,-0.7868614196777344,-0.12606091797351837,-0.003502252511680126,10.28569507598877,0.4859817326068878,0.20326878130435944,0.6744143962860107
1781546628920227,309025604,0.6170975565910339,0.004904421512037516,0.0034549259580671787,-0.7868639230728149,-0.13112521171569824,-0.0034295828081667423,10.332231521606445,0.4976547360420227,0.1791096031665802,0.5914484262466431
1781546628922251,309042271,0.6170888543128967,0.004902389831840992,0.0034550102427601814,-0.7868705987930298,-0.12091121822595596,-0.009516162797808647,10.306994438171387,0.4527364671230316,0.15801113843917847,0.5497317314147949
1781546628950508,309058938,0.6170858144760132,0.004895358812063932,0.0034568600822240114,-0.7868731617927551,-0.1339253932237625,-0.01222347654402256,10.308435440063477,0.4217194616794586,0.13844303786754608,0.5953094959259033
1781546628952431,309075605,0.6170803308486938,0.004890920594334602,0.0034620657097548246,-0.786877453327179,-0.1298556625843048,-0.01462668739259243,10.29422378540039,0.4147144556045532,0.16674506664276123,0.5788021087646484
1781546628981661,309092272,0.6170816421508789,0.004887750837951899,0.003460363019257784,-0.7868764400482178,-0.12073275446891785,-0.02729361318051815,10.313610076904297,0.45709696412086487,0.14425072073936462,0.6344393491744995
1781546629011327,309108939,0.6170863509178162,0.004899067338556051,0.0034553243312984705,-0.7868727445602417,-0.13504518568515778,-0.007829715497791767,10.332232475280762,0.5364515781402588,0.20851938426494598,0.6644638776779175
1781546629012417,309125606,0.617090106010437,0.004893568344414234,0.0034605616237968206,-0.7868698239326477,-0.13750198483467102,-0.012152102775871754,10.313961029052734,0.4096046984195709,0.16113589704036713,0.6519520878791809
1781546629042034,309142273,0.6170945763587952,0.004894230514764786,0.003463163273409009,-0.7868660688400269,-0.13240908086299896,-0.03542233258485794,10.321578025817871,0.4498806595802307,0.18327806890010834,0.6645918488502502
1781546629043820,309158940,0.6170925498008728,0.004895749501883984,0.0034531268756836653,-0.7868677377700806,-0.12934738397598267,-0.012212630361318588,10.312828063964844,0.5221725106239319,0.13429377973079681,0.609294056892395
1781546629070916,309175607,0.6170966029167175,0.004895899444818497,0.0034523752983659506,-0.7868645787239075,-0.13955433666706085,-0.009090718813240528,10.297831535339355,0.46583092212677,0.16627763211727142,0.658707320690155
1781546629071890,309192274,0.6170942783355713,0.004906795918941498,0.003448344534263015,-0.7868664860725403,-0.12303583323955536,-0.006887775380164385,10.316739082336426,0.5295105576515198,0.2104787528514862,0.6070401668548584
1781546629100848,309208941,0.6170938611030579,0.004907624330371618,0.003440147964283824,-0.7868667244911194,-0.13787709176540375,-0.029535895213484764,10.327425003051758,0.5093532800674438,0.13834057748317719,0.6160430312156677
1781546629102048,309225608,0.6170962452888489,0.004900995641946793,0.0034437126014381647,-0.7868649363517761,-0.13463306427001953,-0.023824553936719894,10.312745094299316,0.4138436019420624,0.14793254435062408,0.6455744504928589
1781546629130483,309242275,0.6171049475669861,0.004897054750472307,0.003438543062657118,-0.7868581414222717,-0.13596422970294952,-0.005571299232542515,10.303303718566895,0.47226613759994507,0.1254061758518219,0.6944690942764282
1781546629160662,309258942,0.6171032190322876,0.004886463284492493,0.0034335178788751364,-0.7868596315383911,-0.13209794461727142,-0.007853351533412933,10.320752143859863,0.44368237257003784,0.09002223610877991,0.6093708872795105
1781546629162543,309275609,0.6171032190322876,0.004874331410974264,0.0034329532645642757,-0.7868597507476807,-0.12117620557546616,-0.013020970858633518,10.311110496520996,0.4129471182823181,0.1006258949637413,0.6246232390403748
1781546629190976,309292276,0.6170973777770996,0.004866483621299267,0.003421083325520158,-0.7868644595146179,-0.1390286386013031,-0.024314632639288902,10.31672191619873,0.4926154911518097,0.07579438388347626,0.5726935863494873
1781546629192343,309308943,0.6171003580093384,0.004858676344156265,0.0034242128022015095,-0.7868621349334717,-0.12990573048591614,-0.013643231242895126,10.31848430633545,0.41119906306266785,0.13970446586608887,0.6480908989906311
1781546629220265,309325610,0.617089033126831,0.004853062331676483,0.003439477412030101,-0.7868708372116089,-0.1359495222568512,-0.033115681260824203,10.296637535095215,0.3555554747581482,0.20303183794021606,0.5224605798721313
1781546629222356,309342277,0.6170926094055176,0.00485419575124979,0.003427848918363452,-0.7868680953979492,-0.11915748566389084,0.0018317471258342266,10.290239334106445,0.5289086103439331,0.12544459104537964,0.6568184494972229
1781546629250449,309358944,0.6170869469642639,0.00485272379592061,0.003418740350753069,-0.7868725657463074,-0.13711220026016235,-0.023806918412446976,10.319528579711914,0.5045893788337708,0.12202529609203339,0.5811073780059814
1781546629252245,309375611,0.6170886158943176,0.0048464760184288025,0.0034185457043349743,-0.7868712544441223,-0.12509572505950928,-0.006551611702889204,10.281739234924316,0.43571677803993225,0.13401202857494354,0.6458690166473389
1781546629281338,309392278,0.6170893907546997,0.004861353896558285,0.0034239464439451694,-0.7868706583976746,-0.12639549374580383,-0.006114530377089977,10.310200691223145,0.49518951773643494,0.2720516622066498,0.633574903011322
1781546629310556,309408945,0.6170929670333862,0.004858132917433977,0.003427633084356785,-0.7868679165840149,-0.12144085019826889,-0.017941832542419434,10.309622764587402,0.4275720417499542,0.16687312722206116,0.6562678217887878
1781546629312475,309425612,0.617089569568634,0.004852550569921732,0.0034298067912459373,-0.7868704795837402,-0.134565532207489,-0.02495119906961918,10.307090759277344,0.42607370018959045,0.14766362309455872,0.5955913066864014
1781546629340682,309442279,0.6170965433120728,0.004859902895987034,0.003434312529861927,-0.7868649363517761,-0.13472925126552582,-0.004372396972030401,10.309958457946777,0.4678351879119873,0.22757524251937866,0.6854278445243835
1781546629342251,309458946,0.6170966625213623,0.004862426780164242,0.0034389602951705456,-0.7868648767471313,-0.1318332999944687,-0.009956161491572857,10.301215171813965,0.44683268666267395,0.20202656090259552,0.6331394910812378
1781546629370275,309475613,0.6170978546142578,0.004866849631071091,0.0034398401621729136,-0.7868639230728149,-0.12844306230545044,-0.01681532710790634,10.314507484436035,0.4753524661064148,0.1962893009185791,0.6307703256607056
1781546629372765,309492280,0.6170983910560608,0.004868092015385628,0.003443788504227996,-0.7868635058403015,-0.13048149645328522,-0.03209288418292999,10.305499076843262,0.44523200392723083,0.19214007258415222,0.6305014491081238
1781546629400429,309508947,0.617098867893219,0.004869007971137762,0.0034405302722007036,-0.7868631482124329,-0.12896831333637238,-0.016779420897364616,10.315058708190918,0.48283135890960693,0.1597784161567688,0.6276455521583557
1781546629402749,309525614,0.617106556892395,0.00486867455765605,0.003437628736719489,-0.7868571281433105,-0.13095936179161072,-0.0074765970930457115,10.308298110961914,0.47537803649902344,0.15455342829227448,0.6880147457122803
1781546629430972,309542281,0.6171051263809204,0.00486881984397769,0.00344167766161263,-0.7868582010269165,-0.12234602123498917,-0.014741289429366589,10.31274127960205,0.44013503193855286,0.1866077035665512,0.6114327311515808
1781546629460921,309558948,0.6170992851257324,0.004872538149356842,0.0034424893092364073,-0.7868627309799194,-0.1253138780593872,-0.02088862657546997,10.336523056030273,0.47304731607437134,0.1922168880701065,0.5736668705940247
1781546629463370,309575615,0.6171008348464966,0.004873545374721289,0.0034421486780047417,-0.7868615388870239,-0.12450966984033585,-0.013943790458142757,10.300503730773926,0.46741893887519836,0.1726936250925064,0.6410089731216431
1781546629491862,309592282,0.6170968413352966,0.004873521160334349,0.0034432080574333668,-0.7868646383285522,-0.13059990108013153,-0.008064494468271732,10.320619583129883,0.45570114254951477,0.1730009764432907,0.5908721685409546
1781546629492856,309608949,0.6170946359634399,0.004867901559919119,0.0034530232660472393,-0.7868663668632507,-0.12770278751850128,-0.021099623292684555,10.299144744873047,0.3845682442188263,0.17990998923778534,0.6039794087409973
1781546629520262,309625616,0.617103099822998,0.004875754937529564,0.003450309857726097,-0.7868596315383911,-0.131913959980011,-0.007061684504151344,10.286174774169922,0.5088667273521423,0.1996701955795288,0.7037537097930908
1781546629522477,309642283,0.6170969009399414,0.004876757971942425,0.003453186247497797,-0.7868645191192627,-0.11957801878452301,-0.021164150908589363,10.30578899383545,0.4503032863140106,0.18628756701946259,0.5737308859825134
1781546629550554,309658950,0.6170966625213623,0.004879188258200884,0.0034516151063144207,-0.7868646383285522,-0.13474075496196747,-0.012287848629057407,10.31404972076416,0.4801163673400879,0.17512042820453644,0.6272869110107422
1781546629552071,309675617,0.6170938611030579,0.004873252473771572,0.0034446760546416044,-0.7868669629096985,-0.1322413980960846,-0.01235231477767229,10.334753036499023,0.4739309847354889,0.10710589587688446,0.595117449760437
1781546629581027,309692284,0.6170905828475952,0.004868173506110907,0.0034392138477414846,-0.7868695855140686,-0.13227318227291107,-0.01144386362284422,10.28957462310791,0.4694487750530243,0.11797849833965302,0.5986648797988892
1781546629611366,309708951,0.6170851588249207,0.0048688254319131374,0.003435681341215968,-0.7868738770484924,-0.11915207654237747,-0.021088894456624985,10.312140464782715,0.48351016640663147,0.15720435976982117,0.5760360360145569
1781546629612890,309725618,0.6170898079872131,0.004865339025855064,0.00344100221991539,-0.7868702411651611,-0.1221882775425911,-0.011365186423063278,10.30677604675293,0.41761505603790283,0.1723734587430954,0.659885585308075
1781546629641352,309742285,0.6170827746391296,0.0048673078417778015,0.0034486074000597,-0.7868757843971252,-0.13791285455226898,-0.011508234776556492,10.3345308303833,0.42878857254981995,0.21156728267669678,0.5740253925323486
1781546629642735,309758952,0.6170912384986877,0.004859511740505695,0.0034573005978018045,-0.7868691086769104,-0.136071115732193,-0.008486339822411537,10.316045761108398,0.3808287978172302,0.16341541707515717,0.6983238458633423
1781546629670460,309775619,0.6171017289161682,0.004867512732744217,0.003462251741439104,-0.7868607640266418,-0.13360822200775146,-0.010009614750742912,10.332167625427246,0.46797603368759155,0.23299232125282288,0.7150872945785522
1781546629672422,309792286,0.6171050667762756,0.004861666355282068,0.0034600794315338135,-0.7868581414222717,-0.13546673953533173,-0.013628926128149033,10.320365905761719,0.44825416803359985,0.12777535617351532,0.6468679308891296
1781546629701674,309808953,0.6171108484268188,0.004864154849201441,0.003458601888269186,-0.7868536114692688,-0.13208851218223572,-0.01656973361968994,10.323437690734863,0.4795209467411041,0.1758439838886261,0.6780449748039246
1781546629703130,309825620,0.6171085238456726,0.004861702211201191,0.0034567611292004585,-0.7868554592132568,-0.14493295550346375,-0.000994185684248805,10.303293228149414,0.4609837830066681,0.14757396280765533,0.6035952568054199
1781546629731352,309842287,0.6171102523803711,0.004868531599640846,0.003456801176071167,-0.786854088306427,-0.12532103061676025,-0.0025033450219780207,10.311349868774414,0.490054190158844,0.20574039220809937,0.6378778219223022
1781546629761756,309858954,0.6171051859855652,0.00486505264416337,0.0034695633221417665,-0.786858081817627,-0.13112878799438477,-0.024876097217202187,10.292084693908691,0.37784498929977417,0.2039603441953659,0.5778801441192627
1781546629763707,309875621,0.6171140074729919,0.004869972355663776,0.003482782980427146,-0.7868511080741882,-0.13874471187591553,-0.012323918752372265,10.30184268951416,0.41027066111564636,0.25135666131973267,0.7020889520645142
1781546629791380,309892288,0.6171081066131592,0.004887389950454235,0.00348496250808239,-0.7868554592132568,-0.13425126671791077,-0.009255446493625641,10.33313274383545,0.5237733125686646,0.2720901072025299,0.5729240775108337
1781546629793188,309908955,0.6170943975448608,0.004896338563412428,0.0035080276429653168,-0.7868660688400269,-0.12399783730506897,-0.014337015338242054,10.30462646484375,0.44959890842437744,0.19280599057674408,0.531098484992981
1781546629820444,309925622,0.6170929670333862,0.004907872062176466,0.003516055177897215,-0.7868671417236328,-0.11959552764892578,-0.007170295808464289,10.316814422607422,0.46691301465034485,0.2650209665298462,0.6170546412467957
1781546629822249,309942289,0.6170898079872131,0.004900032188743353,0.0035222736187279224,-0.7868695855140686,-0.13186906278133392,-0.016829632222652435,10.325383186340332,0.39465969800949097,0.15250442922115326,0.5954888463020325
1781546629850671,309958956,0.6170960068702698,0.004901665262877941,0.003521450562402606,-0.7868647575378418,-0.12936215102672577,-0.01021722424775362,10.314993858337402,0.4725479185581207,0.1738654226064682,0.670777440071106
1781546629881175,309975623,0.6170985102653503,0.004898650571703911,0.003537751967087388,-0.7868627905845642,-0.13454049825668335,-0.01897893287241459,10.315444946289062,0.3602105677127838,0.2213897705078125,0.6476491093635559
1781546629883149,309992290,0.6171059012413025,0.004899173974990845,0.0035358136519789696,-0.786857008934021,-0.13524357974529266,-0.009638979099690914,10.313801765441895,0.47370046377182007,0.16317209601402283,0.6881555914878845
1781546629910916,310008957,0.6171031594276428,0.004895916674286127,0.003544701961800456,-0.7868590950965881,-0.12917618453502655,-0.020541734993457794,10.316753387451172,0.39953890442848206,0.18861833214759827,0.6049143075942993
1781546629913114,310025624,0.6171058416366577,0.004890615586191416,0.0035372392740100622,-0.7868571281433105,-0.12241357564926147,-0.005857827607542276,10.289953231811523,0.47898948192596436,0.10820724815130234,0.6537833213806152
1781546629941260,310042291,0.6170969605445862,0.00488062109798193,0.0035317293368279934,-0.7868642210960388,-0.12478853762149811,0.0016914753941819072,10.28964614868164,0.44918909668922424,0.09105955064296722,0.5495268106460571
1781546629942802,310058958,0.6170980930328369,0.004883178975433111,0.003533225040882826,-0.786863386631012,-0.12446273863315582,-0.01229142490774393,10.309422492980957,0.46398040652275085,0.1887463629245758,0.6404390931129456
1781546629970295,310075625,0.6171112656593323,0.00488074729219079,0.00353747489862144,-0.7868528962135315,-0.13596129417419434,-0.0013742254814133048,10.313626289367676,0.4273543357849121,0.173455610871315,0.738459050655365
1781546629972898,310092292,0.6171095371246338,0.00487105268985033,0.0035476472694426775,-0.7868542075157166,-0.1314152032136917,-0.014412257820367813,10.30395793914795,0.3652178645133972,0.15925335884094238,0.6101008653640747
1781546630001314,310108959,0.617104172706604,0.004862445872277021,0.003549364861100912,-0.7868584394454956,-0.14137105643749237,-0.011919498443603516,10.31677532196045,0.4158798158168793,0.12923529744148254,0.575139582157135
1781546630030994,310125626,0.6171053051948547,0.0048615350387990475,0.0035600741393864155,-0.786857545375824,-0.13657177984714508,-0.009594963863492012,10.319743156433105,0.39942365884780884,0.20905724167823792,0.6388383507728577
1781546630033183,310142293,0.6171035766601562,0.004864023998379707,0.0035592718049883842,-0.786858856678009,-0.13165763020515442,-0.006347612477838993,10.317619323730469,0.476345032453537,0.17855894565582275,0.6080710887908936
1781546630060903,310158960,0.6171059608459473,0.004855064675211906,0.0035706525668501854,-0.786857008934021,-0.12702688574790955,-0.005864980164915323,10.303851127624512,0.36160650849342346,0.16837148368358612,0.6469448208808899
1781546630061823,310175627,0.6170990467071533,0.004841230809688568,0.003559676231816411,-0.7868625521659851,-0.13338179886341095,-0.019089793786406517,10.306772232055664,0.46234121918678284,0.047056928277015686,0.5675454139709473
1781546630090339,310192294,0.6171021461486816,0.004844313953071833,0.003543867962434888,-0.7868601679801941,-0.13659431040287018,-0.008612444624304771,10.294795989990234,0.5597206950187683,0.1181577816605568,0.6558195352554321
1781546630093071,310208961,0.6171073317527771,0.00484863156452775,0.003549260785803199,-0.7868560552597046,-0.13025619089603424,-0.001026371493935585,10.303879737854004,0.4501752257347107,0.21478165686130524,0.6708285808563232
1781546630120871,310225628,0.6171020865440369,0.004850404802709818,0.003544414648786187,-0.7868602275848389,-0.12770994007587433,-0.016561415046453476,10.293933868408203,0.4952535927295685,0.15757574141025543,0.583399772644043
1781546630121805,310242295,0.617106556892395,0.004849976859986782,0.0035385210067033768,-0.7868567705154419,-0.1306786686182022,-0.005270024295896292,10.308480262756348,0.49110427498817444,0.14123483002185822,0.667755126953125
1781546630150720,310258962,0.6170963644981384,0.004844525828957558,0.003533134236931801,-0.7868648171424866,-0.1244523748755455,-0.01818510703742504,10.33203125,0.4678095281124115,0.11615999042987823,0.5350300669670105
1781546630181114,310275629,0.6170940399169922,0.004842660389840603,0.0035332737024873495,-0.7868666052818298,-0.13093210756778717,-0.01200175192207098,10.310730934143066,0.4527108669281006,0.15904845297336578,0.6048502922058105
1781546630182279,310292296,0.6171002388000488,0.004847871605306864,0.003533012233674526,-0.786861777305603,-0.14130306243896484,-0.011379169300198555,10.300183296203613,0.48440656065940857,0.19563619792461395,0.6817011833190918
1781546630211796,310308963,0.6170974373817444,0.00484871119260788,0.003526872955262661,-0.7868639826774597,-0.14104919135570526,-0.024604305624961853,10.309637069702148,0.4982758164405823,0.14699767529964447,0.5972561240196228
1781546630212284,310325630,0.6170928478240967,0.004836966749280691,0.003538291435688734,-0.7868675589561462,-0.13862094283103943,-0.003622697899118066,10.32443904876709,0.34987589716911316,0.15351611375808716,0.5857945084571838
1781546630240990,310342297,0.6170976161956787,0.004839416593313217,0.003534408286213875,-0.7868638634681702,-0.13663429021835327,-0.01535149198025465,10.311063766479492,0.4924106001853943,0.16532358527183533,0.6670252084732056
1781546630242631,310358964,0.6170973181724548,0.004837537184357643,0.003542862134054303,-0.786864161491394,-0.13157224655151367,-0.00811799056828022,10.307258605957031,0.4075172245502472,0.19424030184745789,0.6264930367469788
1781546630270361,310375631,0.6170960068702698,0.0048391870222985744,0.003540636971592903,-0.7868651747703552,-0.12084361910820007,-0.008529254235327244,10.29591178894043,0.4804045557975769,0.16801930963993073,0.6126430034637451
1781546630272662,310392298,0.6170960068702698,0.004842900205403566,0.0035390735138207674,-0.7868651747703552,-0.1321556121110916,-0.014158365316689014,10.316875457763672,0.48557186126708984,0.18198461830615997,0.6198592782020569
1781546630300864,310408965,0.6170915365219116,0.004845738876610994,0.003531898371875286,-0.7868686318397522,-0.13427585363388062,-0.012116190046072006,10.298221588134766,0.5124780535697937,0.1534648835659027,0.5792631506919861
1781546630330388,310425632,0.6170886754989624,0.004841323476284742,0.0035220482386648655,-0.7868710160255432,-0.12923698127269745,-0.016715193167328835,10.308141708374023,0.4959322512149811,0.10282858461141586,0.6031982898712158
1781546630331746,310442299,0.6170859336853027,0.004837116692215204,0.003520352765917778,-0.7868730425834656,-0.13704025745391846,-0.019479600712656975,10.299373626708984,0.45278769731521606,0.1385711133480072,0.6005601286888123
1781546630361543,310458966,0.6170832514762878,0.00484475027769804,0.003514543641358614,-0.7868751287460327,-0.13548102974891663,-0.03442099690437317,10.326348304748535,0.5252587795257568,0.18519903719425201,0.601559042930603
1781546630362101,310475633,0.6170780658721924,0.0048520867712795734,0.003519373945891857,-0.7868790030479431,-0.1318301111459732,-0.004026999231427908,10.309347152709961,0.46651607751846313,0.22867657244205475,0.5794808864593506
1781546630390346,310492300,0.6170732975006104,0.004844242241233587,0.0035143173299729824,-0.7868830561637878,-0.12596116960048676,-0.01803123764693737,10.314353942871094,0.4556051194667816,0.10463427007198334,0.5832715630531311
1781546630393640,310508967,0.6170750260353088,0.004853787366300821,0.0035106262657791376,-0.7868817448616028,-0.12559612095355988,-0.003926887642592192,10.32895278930664,0.5216090083122253,0.20453660190105438,0.6415020227432251
1781546630420933,310525634,0.6170707941055298,0.004857460968196392,0.0035112746991217136,-0.7868848443031311,-0.1203961968421936,-0.009841559454798698,10.304130554199219,0.47346994280815125,0.19116677343845367,0.595565676689148
1781546630422145,310542301,0.6170684695243835,0.0048555657267570496,0.0035176908131688833,-0.7868866920471191,-0.12843912839889526,-0.022515639662742615,10.319147109985352,0.4186331331729889,0.1854935586452484,0.604145884513855
1781546630450855,310558968,0.6170639395713806,0.004861555062234402,0.0035116004291921854,-0.7868902683258057,-0.1330241858959198,-0.016232404857873917,10.32038688659668,0.5197777152061462,0.17510761320590973,0.5924280881881714
1781546630481007,310575635,0.6170663833618164,0.004860772751271725,0.003506113775074482,-0.7868883013725281,-0.1414640247821808,-0.007456392049789429,10.304791450500488,0.4875313937664032,0.1410171091556549,0.6423088908195496
1781546630482623,310592302,0.6170668005943298,0.004861099645495415,0.0035118074156343937,-0.7868879437446594,-0.1320911943912506,-0.006591122597455978,10.314082145690918,0.4319133460521698,0.1944708228111267,0.6210119128227234
1781546630511350,310608969,0.6170676350593567,0.004868528805673122,0.003518851473927498,-0.7868872284889221,-0.12610064446926117,-0.005546697415411472,10.299159049987793,0.4546702802181244,0.23860150575637817,0.6275431513786316
1781546630513539,310625636,0.6170671582221985,0.0048576584085822105,0.003521223785355687,-0.7868877053260803,-0.13114702701568604,-0.008218231610953808,10.319113731384277,0.4023306369781494,0.11978419125080109,0.618309736251831
1781546630541174,310642303,0.6170636415481567,0.0048540737479925156,0.0035214766394346952,-0.78689044713974,-0.12904028594493866,-0.011965989135205746,10.32712459564209,0.44482219219207764,0.15021207928657532,0.5942466259002686
1781546630542847,310658970,0.6170573234558105,0.00486765056848526,0.003516814671456814,-0.7868953943252563,-0.1193845272064209,-0.017770174890756607,10.321849822998047,0.5443530678749084,0.2222093641757965,0.5719507336616516
1781546630570932,310675637,0.6170555949211121,0.004862035159021616,0.003509377595037222,-0.786896824836731,-0.14432857930660248,-0.021560953930020332,10.302631378173828,0.47776010632514954,0.10660645365715027,0.6094093322753906
1781546630572936,310692304,0.6170530915260315,0.004866607021540403,0.0035060413647443056,-0.786898672580719,-0.13420790433883667,-0.010034837760031223,10.318377494812012,0.4987817108631134,0.17909680306911469,0.6044469475746155
1781546630600927,310708971,0.6170462369918823,0.004867896903306246,0.003512074239552021,-0.7869040966033936,-0.13506977260112762,-0.018603431060910225,10.299101829528809,0.43442344665527344,0.2010020762681961,0.5654451251029968
1781546630602968,310725638,0.6170404553413391,0.004871779587119818,0.0035064532421529293,-0.7869086265563965,-0.13435810804367065,-0.008039314299821854,10.313892364501953,0.5084248781204224,0.1656501293182373,0.5766699314117432
1781546630630557,310742305,0.6170427203178406,0.004869786556810141,0.0034971581771969795,-0.786906898021698,-0.1333286315202713,-0.018381813541054726,10.3145112991333,0.5029757618904114,0.11829864978790283,0.6400933861732483
1781546630660967,310758972,0.6170406937599182,0.004869512747973204,0.003491533687338233,-0.7869085073471069,-0.13374300301074982,-0.019111251458525658,10.33248519897461,0.4905407726764679,0.14320699870586395,0.6109588742256165
1781546630662434,310775639,0.6170352101325989,0.004860596731305122,0.0034907616209238768,-0.7869128584861755,-0.1321873515844345,-0.009877484291791916,10.337445259094238,0.4278665781021118,0.11701801419258118,0.5759207606315613
1781546630690746,310792306,0.6170380711555481,0.004864058922976255,0.0034977656323462725,-0.7869105339050293,-0.1359177529811859,-0.024096688255667686,10.325458526611328,0.4377914369106293,0.2169971764087677,0.6515550017356873
1781546630692324,310808973,0.6170345544815063,0.004872559569776058,0.003503623651340604,-0.7869131565093994,-0.1318444460630417,-0.011172275990247726,10.316474914550781,0.4657221734523773,0.23938271403312683,0.5975891351699829
1781546630722215,310825640,0.6170276999473572,0.004879784770309925,0.0035001887008547783,-0.7869184613227844,-0.13366790115833282,-0.011883736588060856,10.327075004577637,0.5108773708343506,0.1930365115404129,0.5611293911933899
1781546630723516,310842307,0.6170343160629272,0.004875767044723034,0.0035064106341451406,-0.7869134545326233,-0.13842783868312836,-0.013503759168088436,10.322111129760742,0.41012972593307495,0.17321227490901947,0.6818419694900513
1781546630750703,310858974,0.6170324683189392,0.004879544023424387,0.00351692084223032,-0.7869146466255188,-0.12583957612514496,-0.021646782755851746,10.345209121704102,0.4204132854938507,0.23355580866336823,0.6095886826515198
1781546630752605,310875641,0.6170356869697571,0.004876566585153341,0.003526936983689666,-0.7869122624397278,-0.121634341776371,-0.024540118873119354,10.328673362731934,0.3941730260848999,0.19493183493614197,0.6543979644775391
1781546630781399,310892308,0.6170312762260437,0.004875318147242069,0.003526444314047694,-0.7869157195091248,-0.13427624106407166,-0.011086378246545792,10.321126937866211,0.45887067914009094,0.15970157086849213,0.5828489661216736
1781546630810663,310908975,0.6170250773429871,0.004877605475485325,0.0035207122564315796,-0.7869205474853516,-0.12247121334075928,-0.01647929474711418,10.306136131286621,0.5021945834159851,0.15657682716846466,0.5744736194610596
1781546630812386,310925642,0.6170251965522766,0.004869666416198015,0.003522380255162716,-0.7869204878807068,-0.12722715735435486,-0.012298576533794403,10.336884498596191,0.4185691475868225,0.1326545774936676,0.621216893196106
1781546630840357,310942309,0.6170282959938049,0.0048804921098053455,0.003521950216963887,-0.7869179248809814,-0.12696634232997894,-0.0037792762741446495,10.327689170837402,0.5094685554504395,0.22532129287719727,0.6440377235412598
1781546630842081,310958976,0.6170287728309631,0.004882986657321453,0.0035314816050231457,-0.786917507648468,-0.12797100841999054,-0.007806860376149416,10.31148624420166,0.4200674593448639,0.2225167155265808,0.6344714164733887
1781546630871411,310975643,0.6170333623886108,0.004884796217083931,0.0035390793345868587,-0.7869138717651367,-0.14037729799747467,-0.006011805031448603,10.311901092529297,0.42750799655914307,0.21054278314113617,0.6672684550285339
1781546630872481,310992310,0.6170420050621033,0.004879786632955074,0.003542461432516575,-0.7869070768356323,-0.11707385629415512,-0.02209007553756237,10.314911842346191,0.421284019947052,0.15582124888896942,0.6952374577522278
1781546630900966,311008977,0.6170459985733032,0.004877427127212286,0.003545045852661133,-0.786903977394104,-0.12947659194469452,-0.018399586901068687,10.303994178771973,0.436984658241272,0.16673225164413452,0.6610445380210876
1781546630902517,311025644,0.617054283618927,0.004872781690210104,0.0035520324017852545,-0.7868975400924683,-0.14869512617588043,-0.023520715534687042,10.286520004272461,0.40321430563926697,0.17307139933109283,0.695608913898468
1781546630931902,311042311,0.6170598268508911,0.004880845546722412,0.003545591840520501,-0.7868932485580444,-0.13346506655216217,-0.003180486848577857,10.317505836486816,0.5299460291862488,0.1848660558462143,0.6743120551109314
1781546630961200,311058978,0.6170666217803955,0.004875777754932642,0.0035460679791867733,-0.7868878245353699,-0.1392575055360794,-0.008178786374628544,10.325301170349121,0.4367668926715851,0.143142968416214,0.6831098198890686
1781546630962573,311075645,0.6170745491981506,0.004872458055615425,0.003551758825778961,-0.786881685256958,-0.13349266350269318,-0.00394813297316432,10.316936492919922,0.4158926010131836,0.17472343146800995,0.6920359134674072
1781546630990728,311092312,0.6170704960823059,0.0048728883266448975,0.0035500407684594393,-0.7868848443031311,-0.14275187253952026,-0.01302468590438366,10.328436851501465,0.4725222587585449,0.16356909275054932,0.5866652727127075
1781546630993110,311108979,0.6170697808265686,0.004871697630733252,0.003556028939783573,-0.7868853807449341,-0.12150482833385468,-0.026245618239045143,10.305341720581055,0.42378124594688416,0.18747854232788086,0.6174260973930359
1781546631021775,311125646,0.6170747876167297,0.004874283913522959,0.0035489946603775024,-0.7868813872337341,-0.13894547522068024,-0.013063040561974049,10.305760383605957,0.5099168419837952,0.15269650518894196,0.6703291535377502
1781546631022989,311142313,0.6170768141746521,0.004870282486081123,0.0035431766882538795,-0.78687983751297,-0.13391108810901642,-0.01477688830345869,10.327218055725098,0.4755830466747284,0.12219179421663284,0.6422448754310608
1781546631050989,311158980,0.6170743107795715,0.00486568920314312,0.0035375936422497034,-0.7868818640708923,-0.12675151228904724,-0.020513124763965607,10.307734489440918,0.47203564643859863,0.11996348202228546,0.6015847325325012
1781546631052676,311175647,0.6170735955238342,0.004858317319303751,0.0035509685985744,-0.7868824005126953,-0.1293439418077469,-0.015241630375385284,10.320594787597656,0.35761088132858276,0.1853911131620407,0.6138147115707397
1781546631080669,311192314,0.6170709133148193,0.0048659807071089745,0.0035435676109045744,-0.7868845462799072,-0.12382617592811584,-0.007277581840753555,10.308453559875488,0.5338902473449707,0.1786421686410904,0.6031085252761841
1781546631110906,311208981,0.6170673966407776,0.004874274134635925,0.003544633276760578,-0.7868872284889221,-0.12121196836233139,-0.004777812864631414,10.324528694152832,0.49068164825439453,0.2179192751646042,0.6026347875595093
1781546631112317,311225648,0.6170654892921448,0.0048749446868896484,0.003553427755832672,-0.7868887782096863,-0.13202962279319763,-0.007781644817441702,10.313785552978516,0.4164944589138031,0.2094670534133911,0.6051959991455078
1781546631140336,311242315,0.6170687675476074,0.0048766047693789005,0.003543433966115117,-0.7868860960006714,-0.13296625018119812,-0.011963799595832825,10.282766342163086,0.5220188498497009,0.13511338829994202,0.6570616960525513
1781546631143120,311258982,0.6170668601989746,0.004874533042311668,0.0035462509840726852,-0.7868875861167908,-0.14025527238845825,-0.013493030332028866,10.307262420654297,0.4372023642063141,0.16929353773593903,0.6091660261154175
1781546631171232,311275649,0.6170650124549866,0.004866977222263813,0.0035439152270555496,-0.7868890762329102,-0.1356995701789856,-0.014912888407707214,10.317214965820312,0.4419279396533966,0.11773517727851868,0.601213276386261
1781546631173414,311292316,0.6170594096183777,0.004875971935689449,0.0035366672091186047,-0.7868934273719788,-0.12640775740146637,0.0017703751800581813,10.317952156066895,0.5388591289520264,0.18653087317943573,0.5755621790885925
1781546631200567,311308983,0.6170529127120972,0.004876261111348867,0.0035331426188349724,-0.786898672580719,-0.12980598211288452,-0.015646034851670265,10.321574211120605,0.4817812740802765,0.15512973070144653,0.5641005039215088
1781546631201856,311325650,0.6170516610145569,0.004860213492065668,0.003528785426169634,-0.7868998050689697,-0.12490261346101761,-0.00994900893419981,10.311893463134766,0.41671222448349,0.06320573389530182,0.6104338765144348
1781546631230534,311342317,0.6170549988746643,0.004858675412833691,0.0035356017760932446,-0.7868971824645996,-0.1304636150598526,-0.016539959236979485,10.297706604003906,0.41759586334228516,0.18913057446479797,0.6527716517448425
1781546631260327,311358984,0.6170544028282166,0.004849019926041365,0.003545591374859214,-0.786897599697113,-0.12930850684642792,0.0007545797270722687,10.295127868652344,0.3662039339542389,0.1586514562368393,0.6135457754135132
1781546631263187,311375651,0.6170580387115479,0.004854354541748762,0.0035448886919766665,-0.7868947386741638,-0.1496727019548416,0.006547175347805023,10.365716934204102,0.4873136281967163,0.19443239271640778,0.6591235399246216
1781546631290424,311392318,0.6170543432235718,0.004832771606743336,0.003529434558004141,-0.7868978977203369,-0.11823656409978867,-0.01446218229830265,10.292192459106445,0.45328715443611145,-0.013779633678495884,0.5979220867156982
1781546631292843,311408985,0.6170514822006226,0.004834594205021858,0.0035315759014338255,-0.786899983882904,-0.11077263206243515,-0.026950137689709663,10.275628089904785,0.4574876129627228,0.18750415742397308,0.5968591570854187
1781546631321068,311425652,0.6170472502708435,0.004849344491958618,0.003543674247339368,-0.7869031429290771,-0.12743814289569855,-0.008207395672798157,10.313892364501953,0.4584672749042511,0.2996685802936554,0.5885030031204224
1781546631322731,311442319,0.6170472502708435,0.004845825955271721,0.003555439878255129,-0.7869032621383667,-0.12592540681362152,-0.0018238656921312213,10.3308687210083,0.3825449049472809,0.19942687451839447,0.6265955567359924
1781546631351207,311458986,0.6170502305030823,0.004844187758862972,0.003539379220455885,-0.78690105676651,-0.13100457191467285,-0.004763399716466665,10.305732727050781,0.5409337878227234,0.09157180041074753,0.6489553451538086
1781546631380751,311475653,0.6170504093170166,0.0048432606272399426,0.0035453096497803926,-0.7869009375572205,-0.12804251909255981,-0.015499282628297806,10.317668914794922,0.42511317133903503,0.18870796263217926,0.6271588802337646
1781546631383662,311492320,0.6170517206192017,0.004836400970816612,0.003537554293870926,-0.7868998646736145,-0.1325954794883728,-0.019815854728221893,10.289084434509277,0.47395655512809753,0.09852564334869385,0.6296561360359192
1781546631410347,311508987,0.6170551180839539,0.004825981333851814,0.003547023981809616,-0.7868972420692444,-0.12645111978054047,-0.0024890403728932142,10.334091186523438,0.3654996156692505,0.15235073864459991,0.6550767421722412
1781546631412174,311525654,0.6170539855957031,0.004821857437491417,0.003541057463735342,-0.7868981957435608,-0.13794861733913422,-0.0010549811413511634,10.325572967529297,0.47592875361442566,0.12094956636428833,0.618604302406311
1781546631440172,311542321,0.6170589327812195,0.004816223867237568,0.00352942431345582,-0.7868942618370056,-0.13709032535552979,-0.011529692448675632,10.314261436462402,0.4999278485774994,0.08871597796678543,0.6627093553543091
1781546631442300,311558988,0.6170640587806702,0.004813637118786573,0.003523885039612651,-0.7868903279304504,-0.13072063028812408,-0.008418265730142593,10.311239242553711,0.4798603355884552,0.13105379045009613,0.6669738292694092
1781546631470433,311575655,0.617062509059906,0.004817300010472536,0.0035276566632092,-0.786891520023346,-0.11538948863744736,-0.008468279615044594,10.314421653747559,0.4563606381416321,0.20443414151668549,0.6102417707443237
1781546631472204,311592322,0.6170629858970642,0.004819251596927643,0.0035256140399724245,-0.7868911027908325,-0.1263187974691391,-0.015932003036141396,10.305398941040039,0.4804237186908722,0.17043329775333405,0.6280425786972046
1781546631500803,311608989,0.6170718669891357,0.004817730747163296,0.0035351167898625135,-0.7868843078613281,-0.13465093076229095,-0.023284483700990677,10.312408447265625,0.4028300940990448,0.20065627992153168,0.6984390616416931
1781546631530926,311625656,0.6170730590820312,0.004821482580155134,0.003534626215696335,-0.7868832349777222,-0.1376124620437622,-0.021618172526359558,10.330089569091797,0.4796298146247864,0.18677419424057007,0.6347019076347351
1781546631533207,311642323,0.6170743107795715,0.004808204714208841,0.0035278017167001963,-0.7868823409080505,-0.1306714415550232,-0.01808851957321167,10.311310768127441,0.44168463349342346,0.06775199621915817,0.6319614052772522
1781546631562069,311658990,0.617071270942688,0.004798273090273142,0.0035231912042945623,-0.7868848443031311,-0.13182653486728668,-0.007009448949247599,10.308345794677734,0.4440665543079376,0.09523440897464752,0.59878009557724
1781546631562682,311675657,0.6170645952224731,0.004795835353434086,0.0035312562249600887,-0.7868901491165161,-0.12481354176998138,0.0012694027973338962,10.3165283203125,0.40756848454475403,0.18954037129878998,0.5594390034675598
1781546631590337,311692324,0.6170682311058044,0.004796861205250025,0.0035211723297834396,-0.7868871688842773,-0.11908914893865585,0.00473619531840086,10.325997352600098,0.5199057459831238,0.1313226968050003,0.6488528251647949
1781546631592555,311708991,0.6170679330825806,0.004798184614628553,0.0035308462101966143,-0.7868874073028564,-0.11634474992752075,-0.005625374149531126,10.275301933288574,0.41440704464912415,0.21675387024879456,0.6209607124328613
1781546631620862,311725658,0.6170646548271179,0.004819247871637344,0.0035411277785897255,-0.7868898510932922,-0.14198258519172668,-0.027690572664141655,10.368855476379395,0.4950615167617798,0.3261201083660126,0.5909938812255859
1781546631621828,311742325,0.617059588432312,0.004790350329130888,0.0035282995086163282,-0.7868940830230713,-0.14438579976558685,-0.02206519991159439,10.305410385131836,0.408221572637558,-0.042222533375024796,0.5700682401657104
1781546631650551,311758992,0.6170603036880493,0.0047753010876476765,0.0035234903916716576,-0.7868935465812683,-0.1205897107720375,-0.013174748048186302,10.299161911010742,0.423358678817749,0.06670187413692474,0.6234707236289978
1781546631681220,311775659,0.6170559525489807,0.004793412052094936,0.003518148325383663,-0.7868967652320862,-0.12756605446338654,-0.002630343195050955,10.31535816192627,0.5670843720436096,0.24385210871696472,0.5873568058013916
1781546631682238,311792326,0.6170622706413269,0.00479527935385704,0.003511973889544606,-0.7868918776512146,-0.13397812843322754,-0.011466415598988533,10.320693969726562,0.5021049380302429,0.1524403840303421,0.6757718324661255
1781546631710367,311808993,0.6170685887336731,0.00479168351739645,0.00350155308842659,-0.786886990070343,-0.13003790378570557,-0.004129842855036259,10.32024097442627,0.501861572265625,0.10489040613174438,0.6786532402038574
1781546631712490,311825660,0.6170602440834045,0.00478516798466444,0.003489607945084572,-0.7868936061859131,-0.12803933024406433,-0.03151360899209976,10.277318954467773,0.49854475259780884,0.08262016624212265,0.5459923148155212
1781546631740180,311842327,0.6170610189437866,0.004779167007654905,0.0034911881666630507,-0.7868930101394653,-0.1292763203382492,-0.008193090558052063,10.338918685913086,0.4270981252193451,0.14277158677577972,0.6278376579284668
1781546631742304,311858994,0.6170586347579956,0.004776774439960718,0.0034944950602948666,-0.7868950366973877,-0.11800053715705872,-0.0014447877183556557,10.298983573913574,0.43310433626174927,0.16972896456718445,0.6051448583602905
1781546631771835,311875661,0.6170622706413269,0.004782804287970066,0.003478303551673889,-0.7868921756744385,-0.11224290728569031,-0.0163404643535614,10.325221061706543,0.5741022229194641,0.13248808681964874,0.6526435613632202
1781546631772429,311892328,0.6170583367347717,0.004778007511049509,0.003464430570602417,-0.7868952751159668,-0.12442340701818466,-0.007971365936100483,10.334234237670898,0.5159998536109924,0.08375993371009827,0.5877153873443604
1781546631801506,311908995,0.6170689463615417,0.0048375739715993404,0.0035130330361425877,-0.78688645362854,-0.1275990754365921,-0.008625811897218227,10.299962997436523,0.4966494143009186,0.20550988614559174,0.549782931804657
1781546631831581,311925662,0.6170710325241089,0.004845720715820789,0.0035065605770796537,-0.7868849039077759,-0.12999536097049713,-0.019636407494544983,10.31717586517334,0.5306374430656433,0.18469958007335663,0.6385053396224976
1781546631832394,311942329,0.6170722246170044,0.004836688283830881,0.003504339372739196,-0.7868840098381042,-0.12748423218727112,-0.018953798338770866,10.301722526550293,0.434756338596344,0.10974401235580444,0.6301939487457275
1781546631860599,311958996,0.6170811057090759,0.004830634221434593,0.003502155654132366,-0.7868770956993103,-0.12729768455028534,-0.02339468151330948,10.309117317199707,0.44674310088157654,0.12605929374694824,0.7013460993766785
1781546631863110,311975663,0.6170733571052551,0.004846473224461079,0.0035068816505372524,-0.7868828177452087,-0.13086415827274323,-0.013510910794138908,10.31214427947998,0.503097414970398,0.27379974722862244,0.5603033900260925
1781546631890981,311992330,0.6170694231987,0.0048554884269833565,0.0035120402462780476,-0.7868859767913818,-0.1383853256702423,-0.008286274038255215,10.31494426727295,0.47156181931495667,0.23867832124233246,0.5905839204788208
1781546631892934,312008997,0.6170779466629028,0.004855656996369362,0.0035221234429627657,-0.7868792414665222,-0.12122791260480881,-0.014078758656978607,10.310367584228516,0.40665918588638306,0.21195147931575775,0.7085433006286621
1781546631921489,312025664,0.617080807685852,0.004858881700783968,0.003527648514136672,-0.7868769764900208,-0.13415783643722534,-0.012033937498927116,10.345037460327148,0.44451478123664856,0.20896758139133453,0.6599303483963013
1781546631922553,312042331,0.617083728313446,0.00485153216868639,0.0035273509565740824,-0.7868746519088745,-0.12355837970972061,-0.02950025536119938,10.318191528320312,0.4311961829662323,0.1270325779914856,0.6663207411766052
1781546631951255,312058998,0.6170786619186401,0.004856251645833254,0.0035332071129232645,-0.7868785858154297,-0.14397452771663666,-0.015234642662107944,10.318470001220703,0.4496053159236908,0.21843792498111725,0.5869662165641785
1781546631980360,312075665,0.6170800924301147,0.004866382572799921,0.0035275383852422237,-0.786877453327179,-0.14346227049827576,-0.012740087695419788,10.314530372619629,0.5345306396484375,0.19881215691566467,0.6432693004608154
1781546631982557,312092332,0.6170870661735535,0.0048547908663749695,0.003511245595291257,-0.786872148513794,-0.13155296444892883,-0.018702995032072067,10.304800033569336,0.49962055683135986,0.036235567182302475,0.687079906463623
1781546632010956,312108999,0.6170831918716431,0.0048509323969483376,0.0035141981206834316,-0.7868751883506775,-0.13092495501041412,-0.012860041111707687,10.323909759521484,0.42880779504776,0.1597207933664322,0.597851574420929
1781546632012311,312125666,0.6170815229415894,0.004846801050007343,0.0035232261288911104,-0.7868764996528625,-0.12924055755138397,-0.01623598113656044,10.306404113769531,0.39476215839385986,0.18399524688720703,0.6119194030761719
1781546632040847,312142333,0.6170787215232849,0.0048501924611628056,0.0035228717606514692,-0.7868787050247192,-0.12003181874752045,-0.02081710286438465,10.301597595214844,0.47751668095588684,0.18489165604114532,0.5992026329040527
1781546632042115,312159000,0.6170816421508789,0.004844725131988525,0.003510058159008622,-0.7868763208389282,-0.13251277804374695,-0.017841698601841927,10.318195343017578,0.5069841146469116,0.08410569280385971,0.6539369821548462
1781546632070915,312175667,0.617084264755249,0.004834774881601334,0.0035165497101843357,-0.7868744134902954,-0.12936250865459442,-0.020302260294556618,10.306686401367188,0.38350534439086914,0.14177270233631134,0.6498646140098572
1781546632072179,312192334,0.6170881390571594,0.004837686195969582,0.0035212826915085316,-0.7868713736534119,-0.13231967389583588,-0.013242695480585098,10.315277099609375,0.44757553935050964,0.20392192900180817,0.6601609587669373
1781546632101003,312209001,0.6170899271965027,0.004841674119234085,0.0035198323894292116,-0.786870002746582,-0.12193436175584793,-0.012892227619886398,10.319393157958984,0.48571279644966125,0.18349577486515045,0.6443706750869751
1781546632102157,312225668,0.6170899271965027,0.004836485255509615,0.0035182228311896324,-0.7868698239326477,-0.13099290430545807,-0.008915484882891178,10.30914306640625,0.4477803707122803,0.13314121961593628,0.6209350824356079
1781546632131037,312242335,0.6170989871025085,0.004837093874812126,0.0035187103785574436,-0.7868629097938538,-0.12833631038665771,-0.006859948392957449,10.308616638183594,0.4604458808898926,0.17342998087406158,0.7081078886985779
1781546632161222,312259002,0.6171039342880249,0.004875999875366688,0.0035626408644020557,-0.7868585586547852,-0.11155762523412704,0.009486471302807331,10.27512264251709,0.3882308900356293,0.5649328827857971,0.6666024923324585
1781546632164115,312275669,0.6171145439147949,0.005035444162786007,0.0037346817553043365,-0.7868484258651733,-0.16008195281028748,-0.023935306817293167,10.35788345336914,0.20635510981082916,1.7606617212295532,0.711078941822052
1781546632190869,312292336,0.6171107888221741,0.0048576947301626205,0.0035268047358840704,-0.7868534922599792,-0.16550582647323608,-0.011637530289590359,10.383096694946289,0.831842839717865,-1.6756339073181152,0.575587809085846
1781546632192095,312309003,0.6171117424964905,0.0049308412708342075,0.003612400032579899,-0.7868518829345703,-0.11001086980104446,-0.010424797423183918,10.218856811523438,0.30824241042137146,0.9269812107086182,0.6354190707206726
1781546632220529,312325670,0.6171143054962158,0.004927417729049921,0.0036308374255895615,-0.7868497371673584,-0.155640110373497,-0.0036012406926602125,10.351821899414062,0.3467510938644409,0.22775450348854065,0.6376729011535645
1781546632222125,312342337,0.6171095371246338,0.00485980836674571,0.003568679792806506,-0.7868542075157166,-0.1008649617433548,-0.006907641887664795,10.268967628479004,0.5109156966209412,-0.4615023732185364,0.5680319666862488
1781546632251613,312359004,0.6171180605888367,0.004926871042698622,0.0036509621422737837,-0.7868468165397644,-0.14315617084503174,-0.01400691643357277,10.329567909240723,0.30005913972854614,0.8799818754196167,0.692035973072052
1781546632252932,312375671,0.6171120405197144,0.004892329219728708,0.003629423910751939,-0.7868516445159912,-0.13015930354595184,-0.012348730117082596,10.321965217590332,0.4314395487308502,-0.11021145433187485,0.5584145188331604
1781546632280590,312392338,0.6171024441719055,0.004830635152757168,0.0035679463762789965,-0.7868599891662598,-0.12337781488895416,-0.00417850399389863,10.404303550720215,0.5324559807777405,-0.42660510540008545,0.5326609015464783
1781546632311214,312409005,0.6170995831489563,0.00490750465542078,0.003651075065135956,-0.7868613004684448,-0.11750266700983047,-0.04207830876111984,10.237909317016602,0.33760738372802734,0.9366244673728943,0.5970256924629211
1781546632312693,312425672,0.6170955300331116,0.005068605300039053,0.003816202748566866,-0.7868626713752747,-0.12594492733478546,0.0028908851090818644,10.26453685760498,0.251395046710968,1.7402739524841309,0.5927355289459229
1781546632340398,312442339,0.6170971393585205,0.005020486190915108,0.0037742487620562315,-0.7868618965148926,-0.16049642860889435,-0.02308729663491249,10.316877365112305,0.48380470275878906,-0.27027803659439087,0.631718099117279
1781546632344680,312459006,0.6170880794525146,0.0050533004105091095,0.0038026967085897923,-0.7868685722351074,-0.14178231358528137,-0.022058047354221344,10.301225662231445,0.44707608222961426,0.46624717116355896,0.5297154188156128
1781546632370849,312475673,0.6170855760574341,0.005071546882390976,0.003805503947660327,-0.7868705987930298,-0.1531914472579956,-0.00981836672872305,10.381733894348145,0.5235043168067932,0.27865973114967346,0.5951430201530457
1781546632372856,312492340,0.6170889735221863,0.00497030233964324,0.003685570089146495,-0.7868691086769104,-0.14798881113529205,-0.004502821248024702,10.287528038024902,0.6803181767463684,-0.888568639755249,0.6380828022956848
1781546632401233,312509007,0.6170892119407654,0.005018188618123531,0.003753930563107133,-0.7868683338165283,-0.12422354519367218,-0.016368523240089417,10.28406810760498,0.294456422328949,0.7171556353569031,0.6186363101005554
1781546632402850,312525674,0.6170872449874878,0.005078907124698162,0.003811855800449848,-0.7868692874908447,-0.1455828696489334,-0.005171110853552818,10.359530448913574,0.40546825528144836,0.7423264384269714,0.597986102104187
1781546632430732,312542341,0.6170873045921326,0.005013288930058479,0.00374929653480649,-0.7868698835372925,-0.10006654262542725,-0.014057460241019726,10.295867919921875,0.5212247967720032,-0.45242270827293396,0.6125853061676025
1781546632460453,312559008,0.6170896887779236,0.005059714429080486,0.0038200058043003082,-0.7868673205375671,-0.11569954454898834,-0.008447022177278996,10.294215202331543,0.27533650398254395,0.7192301750183105,0.6414059400558472
1781546632462567,312575675,0.617094874382019,0.005071447230875492,0.0038221455179154873,-0.7868630290031433,-0.15812550485134125,-0.004385066218674183,10.332529067993164,0.4990185797214508,0.24061208963394165,0.6573306918144226
1781546632490812,312592342,0.6171023845672607,0.005069325212389231,0.0038077514618635178,-0.7868574261665344,-0.1225333884358406,0.0043387566693127155,10.345942497253418,0.5295873284339905,0.0955161452293396,0.6768218874931335
1781546632493504,312609009,0.6171037554740906,0.005089072044938803,0.0038368096575140953,-0.7868560552597046,-0.13721907138824463,-0.017069237306714058,10.32384204864502,0.3876417875289917,0.3981685936450958,0.6243031024932861
1781546632521770,312625676,0.6170964241027832,0.005077531561255455,0.0038239320274442434,-0.7868618965148926,-0.1558908224105835,-0.028609704226255417,10.341858863830566,0.48243436217308044,0.050962865352630615,0.5379242897033691
1781546632525058,312642343,0.617100179195404,0.005060847382992506,0.003809914458543062,-0.7868590950965881,-0.13548102974891663,-0.021832745522260666,10.269659042358398,0.46601665019989014,0.018306676298379898,0.6389279961585999
1781546632550806,312659010,0.6170998811721802,0.005047440063208342,0.0037935865111649036,-0.7868595123291016,-0.1344403624534607,-0.024504171684384346,10.333451271057129,0.49276918172836304,0.026208193972706795,0.5988953113555908
1781546632553269,312675677,0.6171024441719055,0.005089696496725082,0.0038338403683155775,-0.786857008934021,-0.12557686865329742,-0.003197680227458477,10.307618141174316,0.4225519001483917,0.5674557685852051,0.6336389780044556
1781546632581702,312692344,0.6171059608459473,0.005065428093075752,0.003816829761490226,-0.7868545055389404,-0.1349446028470993,-0.01007775217294693,10.31659984588623,0.450188010931015,-0.03542236611247063,0.6335108876228333
1781546632611582,312709011,0.6171069741249084,0.0050643207505345345,0.003824247047305107,-0.7868537306785583,-0.12840767204761505,-0.013750685378909111,10.298601150512695,0.4163920283317566,0.193548783659935,0.6101137399673462
1781546632613121,312725678,0.6171020865440369,0.005088125821202993,0.0038345656357705593,-0.7868573069572449,-0.14127092063426971,-0.012749179266393185,10.314000129699707,0.5066127777099609,0.34059128165245056,0.5679808855056763
1781546632640442,312742345,0.6171134114265442,0.005089925602078438,0.0038249336648732424,-0.7868484854698181,-0.1458633542060852,-0.006865361705422401,10.31614875793457,0.5203284025192261,0.13689348101615906,0.705367386341095
1781546632642124,312759012,0.6171168684959412,0.005077217239886522,0.0038138069212436676,-0.786845862865448,-0.14371703565120697,-0.04376562312245369,10.28145980834961,0.4671180248260498,0.052115440368652344,0.6434998512268066
1781546632671500,312775679,0.6171161532402039,0.005069547798484564,0.0037965388037264347,-0.7868465185165405,-0.12424101680517197,-0.016228828579187393,10.329374313354492,0.522070050239563,0.05328081548213959,0.6040050387382507
1781546632672578,312792346,0.6171172857284546,0.005091249477118254,0.003812486073002219,-0.7868454456329346,-0.12653730809688568,0.0020307546947151423,10.324236869812012,0.4667850136756897,0.35312867164611816,0.62642902135849
1781546632700986,312809013,0.61712247133255,0.005071789026260376,0.0037990855053067207,-0.7868415713310242,-0.13703668117523193,0.003501106984913349,10.321295738220215,0.4507386386394501,0.005922935903072357,0.6564854383468628
1781546632702024,312825680,0.6171327233314514,0.005083439406007528,0.003817846765741706,-0.7868334054946899,-0.13410866260528564,-0.017745034769177437,10.307706832885742,0.40850329399108887,0.31070125102996826,0.7005521059036255
1781546632730734,312842347,0.6171377301216125,0.0050748251378536224,0.003785568755120039,-0.7868297100067139,-0.1397651582956314,-0.03167527914047241,10.344063758850098,0.5988824963569641,-0.015482875518500805,0.6594948768615723
1781546632760986,312859014,0.6171363592147827,0.0050799972377717495,0.0038070138543844223,-0.7868306636810303,-0.1448507010936737,-0.02178625389933586,10.288734436035156,0.3671132028102875,0.2870479226112366,0.6010724306106567
1781546632762372,312875681,0.6171320080757141,0.00509475264698267,0.0038249671924859285,-0.7868339419364929,-0.14642386138439178,0.006966716609895229,10.30678653717041,0.42686766386032104,0.32407107949256897,0.5766251087188721
1781546632791228,312892348,0.6171339750289917,0.005091195460408926,0.003824469866231084,-0.7868323922157288,-0.14712516963481903,-0.002775136847048998,10.314347267150879,0.44858717918395996,0.14669032394886017,0.6301684379577637
1781546632793074,312909015,0.6171311140060425,0.0050669447518885136,0.003805167507380247,-0.7868348956108093,-0.12236350774765015,-0.020838560536503792,10.299748420715332,0.4628151059150696,-0.04503992944955826,0.5894185900688171
1781546632820332,312925682,0.6171236038208008,0.0050546517595648766,0.00378321367315948,-0.7868409752845764,-0.12938718497753143,-0.010510473512113094,10.308353424072266,0.5281146168708801,0.008368948474526405,0.5492579340934753
1781546632822648,312942349,0.6171183586120605,0.005093696992844343,0.003818994853645563,-0.7868446707725525,-0.1370910257101059,-0.009984204545617104,10.309419631958008,0.4333861172199249,0.5310985445976257,0.57341068983078
1781546632850910,312959016,0.6171214580535889,0.005118516273796558,0.003831174224615097,-0.7868419885635376,-0.14928115904331207,-0.015483912080526352,10.331758499145508,0.5003248453140259,0.3539994955062866,0.6462916135787964
1781546632852839,312975683,0.6171261668205261,0.005123840644955635,0.0038349328096956015,-0.7868382930755615,-0.14551587402820587,-0.010324510745704174,10.32136344909668,0.46298155188560486,0.2128095179796219,0.6615951657295227
1781546632880600,312992350,0.6171261668205261,0.005104906857013702,0.0038159401156008244,-0.7868384718894958,-0.1458413153886795,-0.017798783257603645,10.297370910644531,0.4834204614162445,-0.014983429573476315,0.6211655139923096
1781546632911374,313009017,0.617118775844574,0.005102378781884909,0.003799940925091505,-0.7868444323539734,-0.13010285794734955,-0.023853378370404243,10.312919616699219,0.5372583866119385,0.08648768067359924,0.5563782453536987
1781546632912863,313025684,0.6171180605888367,0.005114705301821232,0.003804542124271393,-0.7868447303771973,-0.13070322573184967,-0.014662450179457664,10.316017150878906,0.4885045886039734,0.254263699054718,0.6123164296150208
1781546632940892,313042351,0.6171203851699829,0.0051331049762666225,0.003814342198893428,-0.7868427038192749,-0.13885727524757385,-0.004117561969906092,10.317242622375488,0.4859561324119568,0.3091772794723511,0.6394914388656616
1781546632942781,313059018,0.6171298623085022,0.005127371288836002,0.0038141373079270124,-0.7868353128433228,-0.14416055381298065,-0.018563413992524147,10.318456649780273,0.43726643919944763,0.13616351783275604,0.7047526836395264
1781546632971570,313075685,0.6171269416809082,0.005126589443534613,0.0038073561154305935,-0.786837637424469,-0.13243453204631805,-0.027855198830366135,10.309600830078125,0.49457481503486633,0.13501094281673431,0.5954888463020325
1781546632972578,313092352,0.6171257495880127,0.0051289820112288,0.003803210100159049,-0.7868386507034302,-0.1302061378955841,-0.012101885862648487,10.285508155822754,0.49369120597839355,0.16338981688022614,0.6111637949943542
1781546633001086,313109019,0.6171228289604187,0.005127255339175463,0.0037963211070746183,-0.7868409156799316,-0.14211133122444153,-0.003172095865011215,10.289395332336426,0.49120670557022095,0.1294914036989212,0.5915573835372925
1781546633030356,313125686,0.6171184778213501,0.00512893870472908,0.0038000710774213076,-0.7868443131446838,-0.14198973774909973,-0.026245785877108574,10.299727439880371,0.4481005370616913,0.1930364966392517,0.5835404992103577
1781546633032793,313142353,0.617123007774353,0.005122982431203127,0.0038030724972486496,-0.7868407368659973,-0.13172245025634766,-0.011150614358484745,10.307587623596191,0.4192734956741333,0.14858567714691162,0.6633369326591492
1781546633060604,313159020,0.6171268820762634,0.00511438911780715,0.00379263237118721,-0.7868378162384033,-0.13033129274845123,-0.011343729682266712,10.306007385253906,0.48080796003341675,0.07724149525165558,0.654193103313446
1781546633062651,313175687,0.6171241402626038,0.005114643834531307,0.0037944947835057974,-0.7868399620056152,-0.15255028009414673,-0.013242695480585098,10.311460494995117,0.45216017961502075,0.177323117852211,0.5966670513153076
1781546633090195,313192354,0.617133378982544,0.005129425320774317,0.0038082068786025047,-0.7868325710296631,-0.14653664827346802,-0.01514604315161705,10.304516792297363,0.44900980591773987,0.30620619654655457,0.7037408947944641
1781546633092361,313209021,0.6171362996101379,0.00512391421943903,0.003810559632256627,-0.7868304252624512,-0.1507653445005417,-0.020981470122933388,10.311192512512207,0.42471611499786377,0.14822708070278168,0.6441656947135925
1781546633122209,313225688,0.6171362400054932,0.005114458501338959,0.0037960412446409464,-0.7868305444717407,-0.15084800124168396,-0.006329887080937624,10.309426307678223,0.4994412660598755,0.05526580661535263,0.6208070516586304
1781546633124151,313242355,0.617129385471344,0.00509782275184989,0.003790278686210513,-0.7868360280990601,-0.13126468658447266,-0.008261038921773434,10.282154083251953,0.4220012128353119,0.053575366735458374,0.5622692108154297
1781546633151339,313259022,0.6171204447746277,0.005102983675897121,0.0037844607140868902,-0.7868431210517883,-0.12126203626394272,-0.0034331590868532658,10.29964828491211,0.514885663986206,0.17124010622501373,0.545415997505188
1781546633181454,313275689,0.6171266436576843,0.005109748803079128,0.0037886914797127247,-0.786838173866272,-0.14078660309314728,-0.0024648052640259266,10.308459281921387,0.4664904475212097,0.22259359061717987,0.676335334777832
1781546633183811,313292356,0.6171240210533142,0.0051091453060507774,0.003799901343882084,-0.7868401408195496,-0.1283683180809021,-0.007360015995800495,10.322232246398926,0.39797013998031616,0.2123420685529709,0.597403347492218
1781546633211330,313309023,0.617125928401947,0.00511636957526207,0.0037970226258039474,-0.7868385910987854,-0.13827405869960785,-0.03138837218284607,10.308192253112793,0.5071506500244141,0.19491904973983765,0.6385566592216492
1781546633212882,313325690,0.6171294450759888,0.005110087804496288,0.00381043110974133,-0.7868358492851257,-0.14969252049922943,-0.016772232949733734,10.288616180419922,0.3616192936897278,0.19096188247203827,0.6514269709587097
1781546633240216,313342357,0.6171266436576843,0.005115122068673372,0.003807845525443554,-0.7868379950523376,-0.13451145589351654,-0.019504476338624954,10.315742492675781,0.4965469539165497,0.18427696824073792,0.5972945690155029
1781546633242109,313359024,0.6171233654022217,0.0051223356276750565,0.0038010135758668184,-0.786840558052063,-0.14513680338859558,-0.013725483790040016,10.314582824707031,0.5287421941757202,0.178053081035614,0.5962188243865967
1781546633271050,313375691,0.6171190142631531,0.005105732940137386,0.003797136712819338,-0.7868441343307495,-0.1366826444864273,-0.00809653289616108,10.294913291931152,0.41176894307136536,0.06174580380320549,0.5829001665115356
1781546633272938,313392358,0.6171193718910217,0.0051026903092861176,0.0037977807223796844,-0.7868438363075256,-0.12345782667398453,-0.02742593362927437,10.275534629821777,0.444566011428833,0.15429729223251343,0.6279529333114624
1781546633300560,313409025,0.6171174645423889,0.005124607589095831,0.003804989391937852,-0.7868451476097107,-0.12785786390304565,-0.009455423802137375,10.297192573547363,0.5151033401489258,0.3171941041946411,0.6067841053009033
1781546633330801,313425692,0.6171205043792725,0.005125756375491619,0.0038079831283539534,-0.7868427634239197,-0.13941442966461182,-0.01962604932487011,10.308914184570312,0.4495668411254883,0.1869598925113678,0.6502551436424255
1781546633333104,313442359,0.6171262860298157,0.005123678129166365,0.0038071901071816683,-0.7868382334709167,-0.13479797542095184,-0.02261951193213463,10.301115036010742,0.45623263716697693,0.15343926846981049,0.6718531847000122
1781546633360983,313459026,0.6171205043792725,0.005126080475747585,0.003802501130849123,-0.7868427634239197,-0.15078720450401306,-0.008103685453534126,10.328726768493652,0.4969184100627899,0.16112308204174042,0.5720148682594299
1781546633362360,313475693,0.6171168684959412,0.005120880901813507,0.003805000800639391,-0.7868455648422241,-0.14717166125774384,-0.007434934843331575,10.314425468444824,0.4256766438484192,0.1504938304424286,0.5909810066223145
1781546633390354,313492360,0.6171218156814575,0.00510742561891675,0.003799515077844262,-0.7868418097496033,-0.12284629791975021,-0.0013911445857957006,10.304848670959473,0.4333604574203491,0.07197808474302292,0.6638363599777222
1781546633392445,313509027,0.6171252131462097,0.005117721389979124,0.0037952882703393698,-0.7868393063545227,-0.1504407376050949,-0.019209127873182297,10.30766773223877,0.5273718237876892,0.20580443739891052,0.6515166163444519
1781546633421073,313525694,0.6171305775642395,0.005118881817907095,0.003791511757299304,-0.7868349552154541,-0.13379041850566864,-0.01179305836558342,10.322250366210938,0.4860585629940033,0.15830568969249725,0.6708285808563232
1781546633422891,313542361,0.6171358227729797,0.005114774685353041,0.0037892775144428015,-0.7868308424949646,-0.1426263004541397,-0.0022136722691357136,10.333390235900879,0.4554001986980438,0.13635560870170593,0.6685618758201599
1781546633450762,313559028,0.6171379089355469,0.005117244087159634,0.0037899096496403217,-0.7868291735649109,-0.1379307359457016,-0.010456830263137817,10.318273544311523,0.4679888188838959,0.1840464472770691,0.640515923500061
1781546633481089,313575695,0.6171400547027588,0.005123363342136145,0.003795288037508726,-0.7868273854255676,-0.14084219932556152,-0.011429764330387115,10.31705379486084,0.4578077793121338,0.22396382689476013,0.6404390931129456
1781546633482778,313592362,0.617142379283905,0.0051242695190012455,0.0037908079102635384,-0.7868257164955139,-0.15385201573371887,-0.017126455903053284,10.310895919799805,0.4889143407344818,0.15391311049461365,0.6436663269996643
1781546633510879,313609029,0.6171478033065796,0.005125289782881737,0.0037800073623657227,-0.7868215441703796,-0.13486632704734802,-0.013017700985074043,10.322566032409668,0.5235171318054199,0.12771132588386536,0.6685746908187866
1781546633513486,313625696,0.617143988609314,0.005127577111124992,0.0037736138328909874,-0.7868244647979736,-0.14752528071403503,-0.014336886815726757,10.294617652893066,0.5055370330810547,0.1532599776983261,0.5888935327529907
1781546633540428,313642363,0.6171516180038452,0.005120866000652313,0.0037649529986083508,-0.7868186235427856,-0.1416783183813095,-0.001898110844194889,10.309207916259766,0.4790022373199463,0.09506793320178986,0.689372181892395
1781546633542392,313659030,0.6171584129333496,0.00512623181566596,0.0037679821252822876,-0.7868132591247559,-0.13057073950767517,-0.014809660613536835,10.322855949401855,0.4670795500278473,0.20992808043956757,0.6805870532989502
1781546633570399,313675697,0.6171560287475586,0.00511751277372241,0.0037643122486770153,-0.7868152260780334,-0.13328523933887482,-0.017405400052666664,10.334863662719727,0.4440281391143799,0.10527459532022476,0.6029292941093445
1781546633572340,313692364,0.6171489953994751,0.005129992496222258,0.003765697358176112,-0.7868204712867737,-0.13993658125400543,-0.01668996550142765,10.331917762756348,0.5069457292556763,0.24139326810836792,0.5617057085037231
1781546633600643,313709031,0.6171515583992004,0.00512904254719615,0.003776978235691786,-0.7868185043334961,-0.1363607794046402,-0.0015484977047890425,10.332785606384277,0.39581865072250366,0.21076689660549164,0.6437112092971802
1781546633630972,313725698,0.617158055305481,0.00513532105833292,0.003767077811062336,-0.7868134379386902,-0.13639511168003082,-0.01019310113042593,10.29853630065918,0.5408505797386169,0.15997689962387085,0.6785828471183777
1781546633633280,313742365,0.6171496510505676,0.005136525258421898,0.0037649772129952908,-0.7868200540542603,-0.12914757430553436,-0.0018131370889022946,10.30893611907959,0.47796496748924255,0.1655924916267395,0.5480540990829468
1781546633660557,313759032,0.6171572208404541,0.005127407610416412,0.003767592366784811,-0.7868141531944275,-0.12142296880483627,-0.00943761132657528,10.318394660949707,0.40781182050704956,0.12983717024326324,0.6866956949234009
1781546633662609,313775699,0.617155134677887,0.005131527315825224,0.003770204959437251,-0.7868158221244812,-0.13918599486351013,-0.01303885132074356,10.310041427612305,0.46449267864227295,0.2013990730047226,0.6027372479438782
1781546633690318,313792366,0.6171470284461975,0.0051292781718075275,0.0037743954453617334,-0.7868221402168274,-0.13699768483638763,-0.01669745147228241,10.307644844055176,0.42924967408180237,0.17362210154533386,0.5522034168243408
1781546633692339,313809033,0.6171467900276184,0.005135066341608763,0.0037766043096780777,-0.7868223190307617,-0.13268043100833893,-0.010134785436093807,10.314750671386719,0.47366204857826233,0.2087371051311493,0.6203460097312927
1781546633721073,313825700,0.6171406507492065,0.005137308966368437,0.0037697514053434134,-0.7868270874023438,-0.14812609553337097,-0.01098956260830164,10.317412376403809,0.5079830288887024,0.15109571814537048,0.5696840286254883
1781546633721926,313842367,0.6171361207962036,0.005144584458321333,0.003765262197703123,-0.7868306636810303,-0.12911581993103027,-0.00962373148649931,10.315820693969727,0.5164864659309387,0.1883237659931183,0.5825416445732117
1781546633751657,313859034,0.6171378493309021,0.005151973571628332,0.0037602323573082685,-0.7868292927742004,-0.14189648628234863,-0.01810424029827118,10.325024604797363,0.5194831490516663,0.18668456375598907,0.6386078000068665
1781546633752268,313875701,0.6171401143074036,0.005154030863195658,0.003771367250010371,-0.7868274450302124,-0.13125038146972656,-0.009573507122695446,10.33425521850586,0.40938055515289307,0.22641626000404358,0.6425585150718689
1781546633781285,313892368,0.6171407103538513,0.0051554362289607525,0.0037658510264009237,-0.7868269681930542,-0.13244079053401947,-0.0225836094468832,10.318120002746582,0.49681591987609863,0.1522354930639267,0.6278377175331116
1781546633810433,313909035,0.6171406507492065,0.005157809238880873,0.0037680717650800943,-0.786827027797699,-0.13354630768299103,-0.014025884680449963,10.313019752502441,0.45908835530281067,0.19028311967849731,0.620742917060852
1781546633812494,313925702,0.6171337962150574,0.005167307332158089,0.003777767764404416,-0.7868321537971497,-0.13954684138298035,-0.006640807259827852,10.326306343078613,0.449227511882782,0.2605387568473816,0.5631015300750732
1781546633840520,313942369,0.6171352863311768,0.005170019343495369,0.0037906495854258537,-0.7868309020996094,-0.12924771010875702,-0.009491254575550556,10.30049991607666,0.40279173851013184,0.23737210035324097,0.634958028793335
1781546633842030,313959036,0.6171422600746155,0.005172516219317913,0.0038002487272024155,-0.7868255376815796,-0.14534421265125275,-0.018335213884711266,10.302366256713867,0.41932469606399536,0.22229903936386108,0.6838911175727844
1781546633870773,313975703,0.617138147354126,0.005169896874576807,0.0038070250302553177,-0.7868286967277527,-0.1356065422296524,-0.011243750341236591,10.317143440246582,0.4135490357875824,0.18259932100772858,0.5857431292533875
1781546633871847,313992370,0.6171374320983887,0.005170016083866358,0.0038013921584933996,-0.7868292331695557,-0.14544835686683655,-0.01798487827181816,10.305459976196289,0.49207115173339844,0.14481419324874878,0.6159598231315613
1781546633900584,314009037,0.6171449422836304,0.005165027920156717,0.003808977548032999,-0.7868233323097229,-0.14037686586380005,-0.0046133073046803474,10.333479881286621,0.39842477440834045,0.17319948971271515,0.6866316795349121
1781546633902203,314025704,0.6171412467956543,0.005167204421013594,0.003817650955170393,-0.7868261337280273,-0.12855714559555054,-0.019847767427563667,10.308242797851562,0.4235635995864868,0.2165873795747757,0.5895467400550842
1781546633931235,314042371,0.6171369552612305,0.00517784059047699,0.0038166900631040335,-0.78682941198349,-0.16019977629184723,-0.0187214445322752,10.32182502746582,0.511613667011261,0.22149862349033356,0.5844945907592773
1781546633964125,314059038,0.6171324849128723,0.005181158892810345,0.00380389834754169,-0.786832869052887,-0.13980421423912048,-0.02130693383514881,10.330118179321289,0.5445323586463928,0.13169409334659576,0.5833355784416199
1781546633964579,314075705,0.6171301007270813,0.005188715644180775,0.0038187226746231318,-0.7868348956108093,-0.13311359286308289,-0.033580586314201355,10.313188552856445,0.4130111634731293,0.2717059552669525,0.6010851860046387
1781546633990541,314092372,0.617127001285553,0.005184034816920757,0.0038169792387634516,-0.7868373394012451,-0.13064958155155182,-0.022598054260015488,10.331119537353516,0.45082828402519226,0.1352926790714264,0.5944643616676331
1781546633992543,314109039,0.6171299815177917,0.005190023686736822,0.003825315972790122,-0.7868349552154541,-0.12816768884658813,-0.012227052822709084,10.318205833435059,0.44119793176651,0.23580972850322723,0.6490065455436707
1781546634020870,314125706,0.6171225905418396,0.005198311060667038,0.00381465838290751,-0.7868407368659973,-0.1453656703233719,-0.010964651592075825,10.305499076843262,0.5542908310890198,0.16765432059764862,0.5574027299880981
1781546634022225,314142373,0.617127001285553,0.005189883057028055,0.0038073654286563396,-0.7868372201919556,-0.13001301884651184,-0.02177552692592144,10.326355934143066,0.46450549364089966,0.09150777012109756,0.6611214280128479
1781546634050463,314159040,0.6171314120292664,0.005191991105675697,0.003807083470746875,-0.7868337631225586,-0.12914757430553436,-0.021543072536587715,10.308353424072266,0.47125449776649475,0.17828358709812164,0.6602761745452881
1781546634052185,314175707,0.617136538028717,0.0051871174946427345,0.003809599205851555,-0.7868297696113586,-0.13696829974651337,-0.01919693313539028,10.316152572631836,0.42648351192474365,0.15237635374069214,0.6688052415847778
1781546634082089,314192374,0.6171431541442871,0.005190989468246698,0.0038140015676617622,-0.7868245840072632,-0.1306551694869995,-0.010926637798547745,10.337611198425293,0.4532870650291443,0.20769977569580078,0.6801900267601013
1781546634110731,314209041,0.6171444654464722,0.0051864273846149445,0.0038116832729429007,-0.786823570728302,-0.15278272330760956,-0.015660211443901062,10.301376342773438,0.4542219936847687,0.13353820145130157,0.6340103149414062
1781546634112559,314225708,0.6171351671218872,0.005190862342715263,0.0038075498305261135,-0.7868307828903198,-0.14047661423683167,-0.013643096201121807,10.321589469909668,0.502732515335083,0.17449292540550232,0.5408825874328613
